accel.x,accel.y,accel.z,gyro.x,gyro.y,gyro.z
0.5822891235351563,0.6867718505859375,-0.9780661010742188,-0.03816793893129771,-0.022900763358778626,-0.022900763358778626
0.57719970703125,0.5637277221679687,-0.9660910034179688,0.03816793893129771,0.0,-0.007633587786259542
0.5634283447265626,0.49756530761718754,-1.0011181640625,0.030534351145038167,-0.007633587786259542,-0.015267175572519083
0.5801934814453126,0.45804748535156253,-1.0187814331054688,0.030534351145038167,-0.007633587786259542,-0.022900763358778626
0.5604345703125,0.41314086914062503,-1.0127938842773438,0.022900763358778626,-0.007633587786259542,-0.015267175572519083
0.5604345703125,0.3960763549804688,-1.0199789428710937,-0.015267175572519083,-0.015267175572519083,-0.015267175572519083
0.5604345703125,0.3598516845703125,-1.0026150512695313,0.0,-0.007633587786259542,-0.007633587786259542
0.5658233642578125,0.32302825927734374,-0.9900411987304688,0.007633587786259542,-0.007633587786259542,-0.007633587786259542
0.5550457763671875,0.2999761962890625,-1.0014175415039064,0.007633587786259542,-0.007633587786259542,-0.007633587786259542
0.5589376831054688,0.25926086425781253,-1.0071057128906251,-0.007633587786259542,-0.015267175572519083,-0.007633587786259542
0.5577401733398438,0.23980133056640626,-1.0017169189453126,0.007633587786259542,-0.007633587786259542,-0.007633587786259542
0.5427713012695313,0.2221380615234375,-1.0068063354492187,0.0,-0.015267175572519083,-0.007633587786259542
0.5421725463867187,0.19160156250000002,-1.0056088256835938,-0.007633587786259542,-0.015267175572519083,-0.015267175572519083
0.5415737915039063,0.16914825439453127,-0.9966275024414063,0.0,-0.007633587786259542,-0.015267175572519083
0.5403762817382812,0.149688720703125,-0.9960287475585938,0.0,-0.007633587786259542,-0.007633587786259542
0.5370831298828125,0.1239422607421875,-0.9897418212890625,0.007633587786259542,-0.007633587786259542,-0.007633587786259542
0.5298980712890625,0.09580078125000001,-0.9948312377929688,0.015267175572519083,-0.007633587786259542,-0.007633587786259542
0.5361849975585937,0.09190887451171875,-0.9954299926757812,0.015267175572519083,-0.007633587786259542,-0.007633587786259542
0.5278024291992188,0.060474243164062504,-0.9861492919921876,0.007633587786259542,-0.007633587786259542,-0.007633587786259542
0.5307962036132813,0.0305364990234375,-0.9915380859375,0.022900763358778626,-0.007633587786259542,-0.007633587786259542
0.5289999389648438,0.024548950195312502,-0.98914306640625,0.007633587786259542,-0.007633587786259542,-0.007633587786259542
0.5278024291992188,-0.001197509765625,-0.9825567626953126,0.007633587786259542,-0.007633587786259542,-0.007633587786259542
0.5307962036132813,-0.023950195312500002,-0.9777667236328126,0.015267175572519083,-0.007633587786259542,-0.007633587786259542
0.532891845703125,-0.0473016357421875,-0.9729766845703125,0.007633587786259542,-0.007633587786259542,-0.015267175572519083
0.530496826171875,-0.04999603271484375,-0.9777667236328126,0.022900763358778626,-0.007633587786259542,-0.015267175572519083
0.5236111450195313,-0.07933502197265625,-0.9765692138671875,0.0,-0.007633587786259542,-0.015267175572519083
0.5212161254882812,-0.09789642333984376,-0.9651928710937501,0.0,-0.015267175572519083,-0.015267175572519083
0.5200186157226563,-0.10747650146484375,-0.959205322265625,0.007633587786259542,-0.007633587786259542,-0.007633587786259542
0.5176235961914063,-0.116158447265625,-0.9678872680664063,0.007633587786259542,-0.007633587786259542,-0.007633587786259542
0.5167254638671875,-0.12663665771484375,-0.9613009643554687,0.0,-0.015267175572519083,-0.015267175572519083
0.5164260864257812,-0.14519805908203126,-0.9532177734375,0.015267175572519083,-0.007633587786259542,-0.007633587786259542
0.5122348022460937,-0.14340179443359377,-0.9535171508789063,0.015267175572519083,-0.007633587786259542,-0.007633587786259542
0.5122348022460937,-0.16615447998046876,-0.9517208862304688,0.007633587786259542,-0.007633587786259542,-0.007633587786259542
0.5146298217773437,-0.17573455810546876,-0.9511221313476563,0.007633587786259542,-0.007633587786259542,-0.015267175572519083
0.5092410278320313,-0.18561401367187502,-0.9445358276367188,0.015267175572519083,-0.007633587786259542,-0.007633587786259542
0.508941650390625,-0.19040405273437502,-0.9418414306640626,0.007633587786259542,-0.007633587786259542,-0.015267175572519083
0.5128335571289063,-0.21465362548828126,-0.9481283569335938,0.015267175572519083,-0.007633587786259542,-0.015267175572519083
0.5086422729492188,-0.21764739990234377,-0.9391470336914063,0.007633587786259542,-0.007633587786259542,-0.015267175572519083
0.5110372924804688,-0.23531066894531252,-0.9340576171875,0.015267175572519083,-0.007633587786259542,-0.007633587786259542
0.5104385375976562,-0.23381378173828127,-0.9328601074218751,0.007633587786259542,-0.007633587786259542,-0.015267175572519083
0.5071453857421875,-0.24878265380859377,-0.9274713134765625,0.007633587786259542,-0.015267175572519083,-0.015267175572519083
0.5029541015625,-0.25836273193359377,-0.9274713134765625,0.007633587786259542,-0.015267175572519083,-0.015267175572519083
0.5116360473632813,-0.2625540161132813,-0.93166259765625,0.007633587786259542,-0.015267175572519083,-0.015267175572519083
0.5053491210937501,-0.2652484130859375,-0.9265731811523438,0.007633587786259542,-0.007633587786259542,-0.007633587786259542
0.5014572143554688,-0.2763253784179688,-0.9175918579101563,0.007633587786259542,-0.015267175572519083,-0.007633587786259542
0.4900808715820313,-0.288599853515625,-0.9214837646484375,0.007633587786259542,-0.015267175572519083,-0.015267175572519083
0.5011578369140626,-0.29368927001953127,-0.9193881225585938,0.030534351145038167,0.0,-0.007633587786259542
0.50055908203125,-0.3062631225585938,-0.9295669555664063,0.015267175572519083,0.007633587786259542,0.0
0.5394781494140626,-0.30985565185546876,-0.9331594848632813,0.0,0.007633587786259542,0.0
0.5230123901367187,-0.310155029296875,-0.9214837646484375,-0.015267175572519083,-0.007633587786259542,-0.022900763358778626
0.17094451904296876,-0.43888732910156253,-0.5867797851562501,0.4427480916030534,-0.06870229007633588,0.007633587786259542
-0.7008425903320313,1.2076885986328125,-0.3933819580078125,0.8549618320610687,-0.3511450381679389,0.5419847328244275
-2.3165826416015625,0.3119512939453125,0.31674133300781254,0.25190839694656486,-0.48854961832061067,1.0534351145038168
-1.6947756958007814,-1.3956976318359375,0.3511697387695313,0.3053435114503817,0.007633587786259542,1.6564885496183206
-0.3990701293945313,-1.3265414428710938,-0.35895355224609377,-0.16030534351145037,0.015267175572519083,1.2900763358778626
0.47601013183593754,-0.5505551147460938,-0.6319857788085937,-0.41221374045801523,-0.06870229007633588,0.35877862595419846
1.184337158203125,-2.2938299560546875,-0.7610174560546875,0.08396946564885496,0.40458015267175573,-1.0229007633587786
-0.6194119262695312,-3.1569351196289066,-0.6292913818359376,0.4809160305343511,0.6793893129770993,-2.3435114503816794
-3.066523132324219,-3.9416033935546877,0.9460327148437501,2.778625954198473,-0.3969465648854962,-2.66412213740458
-2.8219317626953124,-1.3912069702148437,-0.5086422729492188,1.0916030534351144,-1.8778625954198473,-1.2519083969465647
-0.37751495361328125,-1.1370355224609376,-0.884959716796875,0.564885496183206,-1.3206106870229006,-0.4351145038167939
1.661844177246094,-0.8178991699218751,-1.670226745605469,0.35877862595419846,-0.16030534351145037,-0.08396946564885496
2.086960144042969,-0.5152285766601563,-0.9463320922851562,-0.20610687022900762,0.8854961832061068,0.40458015267175573
-0.5385800170898438,-0.6825805664062501,0.14220428466796875,-0.6717557251908397,1.5038167938931297,1.1374045801526718
-2.8740234375,-1.6965719604492189,1.8938616943359377,-1.0305343511450382,1.3435114503816794,2.091603053435114
-2.8997698974609376,-2.3231689453125,1.47772705078125,-0.6259541984732824,0.8167938931297709,2.404580152671756
-1.0681787109375,-2.078876953125,0.5107379150390625,-0.33587786259541985,0.23664122137404578,1.7099236641221374
1.591490478515625,-1.868115234375,-0.025147705078125002,-0.07633587786259542,0.022900763358778626,0.13740458015267176
1.3229489135742187,-2.34951416015625,-0.7981402587890626,0.1297709923664122,0.3129770992366412,-1.6793893129770991
-1.5094610595703126,-3.5305581665039063,0.34937347412109376,0.6564885496183206,0.22900763358778625,-2.5877862595419847
-2.7662475585937503,-2.6527835083007814,1.0148895263671875,2.1297709923664123,-0.916030534351145,-2.66412213740458
-3.163521423339844,-1.082548828125,-0.8220904541015626,1.4427480916030533,-1.4809160305343512,-1.2213740458015268
1.2124786376953125,-0.2844085693359375,-2.0145108032226564,-0.09923664122137404,-0.20610687022900762,-0.11450381679389313
1.8989511108398438,-0.5637277221679687,-1.2702584838867188,-0.29770992366412213,0.8702290076335878,0.5572519083969465
0.354462890625,-1.1070977783203126,0.09580078125000001,-0.9694656488549618,1.0763358778625953,1.2748091603053435
-0.15238311767578125,-1.821412353515625,0.6484515380859376,-0.6717557251908397,0.8549618320610687,1.16793893129771
1.4265335083007813,-0.9864486694335938,-0.047900390625000004,-0.564885496183206,0.5725190839694656,0.6717557251908397
1.7193246459960938,-0.6325845336914063,-0.1993853759765625,-0.6641221374045801,0.4198473282442748,0.20610687022900762
2.1597088623046874,-0.0014968872070312501,-0.8834628295898438,-1.4732824427480915,0.17557251908396945,-0.4351145038167939
1.7893789672851563,0.19968475341796876,-0.4328997802734375,-1.0,0.3893129770992366,-0.6946564885496183
0.8146060180664063,1.7806970214843751,-0.07214996337890625,0.3053435114503817,0.4580152671755725,-0.5267175572519084
1.2115805053710937,2.2641915893554687,0.626297607421875,-0.2748091603053435,-0.061068702290076333,-0.37404580152671757
1.6139437866210937,1.294508056640625,0.051492919921875005,0.5190839694656488,-0.07633587786259542,0.21374045801526717
1.7262103271484377,0.33171020507812504,-0.08532257080078126,0.09923664122137404,-0.08396946564885496,-0.030534351145038167
1.4543756103515626,0.48259643554687504,-0.1389111328125,0.1450381679389313,-0.030534351145038167,-0.0916030534351145
1.4891033935546876,0.5981561279296875,-0.4436773681640625,0.42748091603053434,0.061068702290076333,-0.1297709923664122
1.3657598876953125,0.7047344970703125,-0.55803955078125,0.3511450381679389,0.06870229007633588,-0.015267175572519083
1.2217593383789063,0.08801696777343751,-0.6505471801757813,0.3969465648854962,0.05343511450381679,0.1450381679389313
1.5079641723632813,-0.00209564208984375,-0.6682104492187501,0.061068702290076333,-0.015267175572519083,0.07633587786259542
1.6468753051757814,0.12244537353515626,-0.6224057006835938,0.07633587786259542,-0.015267175572519083,-0.015267175572519083
1.6313076782226563,0.20836669921875,-0.62031005859375,-0.09923664122137404,0.0,-0.05343511450381679
1.610351257324219,0.06825805664062501,-0.700543212890625,-0.24427480916030533,-0.030534351145038167,-0.12213740458015267
1.0259664916992188,-0.2954855346679688,-0.38769378662109377,-0.13740458015267176,-0.06870229007633588,-0.015267175572519083
1.3510903930664062,0.17393829345703127,-0.6421646118164063,0.06870229007633588,-0.12213740458015267,-0.07633587786259542
1.2960049438476564,0.31284942626953127,-0.6424639892578126,-0.17557251908396945,-0.17557251908396945,-0.030534351145038167
1.2864248657226562,-0.03502716064453125,-0.3607498168945313,0.09923664122137404,0.04580152671755725,0.030534351145038167
1.2331356811523437,0.013172607421875001,-0.3688330078125,0.061068702290076333,-0.007633587786259542,-0.030534351145038167
1.2451107788085938,0.014070739746093752,-0.39697448730468754,0.0916030534351145,-0.030534351145038167,-0.05343511450381679
1.2289443969726563,-0.219144287109375,-0.4685256958007813,0.366412213740458,0.030534351145038167,-0.007633587786259542
1.1430230712890626,-0.30895751953125,-0.5490582275390625,0.3893129770992366,0.030534351145038167,0.007633587786259542
1.2412188720703126,-0.488583984375,-0.5475613403320313,0.25190839694656486,0.015267175572519083,0.022900763358778626
1.2337344360351563,-0.6436614990234375,-0.46074188232421875,0.3053435114503817,-0.007633587786259542,0.007633587786259542
1.1681707763671876,-0.6756948852539063,-0.4739144897460938,0.22900763358778625,-0.04580152671755725,-0.015267175572519083
1.0915301513671876,-0.5200186157226563,-0.511336669921875,0.061068702290076333,-0.061068702290076333,-0.03816793893129771
1.0666818237304687,-0.5798941040039063,-0.42002655029296876,0.09923664122137404,-0.030534351145038167,-0.022900763358778626
1.1600875854492188,-0.5936654663085937,-0.37781433105468754,0.1297709923664122,-0.007633587786259542,0.007633587786259542
1.0963201904296875,-0.6891668701171876,-0.3299139404296875,-0.061068702290076333,-0.022900763358778626,-0.007633587786259542
1.1223660278320313,-0.7023394775390626,-0.3074606323242188,-0.07633587786259542,-0.015267175572519083,-0.015267175572519083
1.2406201171875,-0.6957531738281251,-0.3541635131835938,0.07633587786259542,0.0,-0.007633587786259542
0.9496252441406251,-0.6143225097656251,-0.3784130859375,-0.03816793893129771,0.007633587786259542,-0.007633587786259542
0.8894503784179688,-0.564027099609375,-0.3469784545898438,-0.09923664122137404,-0.022900763358778626,0.0
-0.45235931396484375,1.6420852661132814,-0.20657043457031252,0.3893129770992366,-0.366412213740458,0.6564885496183206
-1.5522720336914064,-0.8972341918945312,0.7532336425781251,0.17557251908396945,-0.12213740458015267,1.7022900763358777
-1.4217434692382813,-1.0484197998046876,-0.32213012695312504,-0.09923664122137404,-0.25190839694656486,1.6030534351145038
1.0771600341796876,-2.3246658325195315,-0.1676513671875,0.48854961832061067,-0.007633587786259542,0.015267175572519083
1.148411865234375,-3.1784902954101564,-0.5391787719726563,-0.13740458015267176,0.183206106870229,-1.6870229007633588
-2.8626470947265625,-4.395160217285157,2.1498294067382813,2.183206106870229,-0.4961832061068702,-2.946564885496183
-2.655777282714844,-1.7744100952148438,-0.18202148437500001,1.6259541984732824,-1.618320610687023,-1.7862595419847327
-0.29189300537109375,-0.5553451538085937,-1.6615447998046875,0.916030534351145,-1.0,-0.5190839694656488
1.9540365600585938,0.06556365966796876,-1.4400054931640627,-0.32061068702290074,0.7022900763358778,0.4198473282442748
-0.0736468505859375,-0.8571176147460938,0.195194091796875,-0.8473282442748091,1.114503816793893,1.3587786259541985
-2.4842340087890626,-1.2690609741210939,1.3448034667968751,-1.3435114503816794,1.2213740458015268,1.9923664122137403
-3.0084439086914063,-2.5509951782226565,1.658551025390625,-0.5038167938931297,0.8091603053435115,2.450381679389313
-1.5259268188476562,-2.3596929931640624,0.7008425903320313,-0.3893129770992366,0.2595419847328244,1.8244274809160304
1.5540682983398437,-2.3809487915039065,0.07604187011718751,-0.24427480916030533,-0.030534351145038167,0.17557251908396945
-0.3637435913085938,-3.494034118652344,-0.358055419921875,0.04580152671755725,0.34351145038167935,-2.610687022900763
-2.7174490356445316,-3.386258239746094,1.2768447875976563,1.9083969465648853,-0.29770992366412213,-2.9236641221374047
-2.9761111450195314,-0.8448431396484375,-1.6289126586914062,1.381679389312977,-1.580152671755725,-1.0687022900763359
1.6929794311523438,-0.13172607421875002,-2.2372476196289064,0.022900763358778626,0.16030534351145037,-0.022900763358778626
0.269439697265625,-0.9942324829101563,0.11406280517578125,-1.114503816793893,0.9465648854961831,1.282442748091603
-0.12304412841796876,-0.9852511596679688,0.9834548950195313,-1.3587786259541985,0.6717557251908397,1.4274809160305344
0.28800109863281254,-1.7286053466796876,0.18142272949218752,-0.8091603053435115,0.3511450381679389,1.0763358778625953
1.5166461181640625,-0.9780661010742188,-0.09250762939453125,0.015267175572519083,0.2213740458015267,0.09923664122137404
1.5834072875976564,-0.19249969482421875,-0.06676116943359375,0.04580152671755725,0.16030534351145037,-0.46564885496183206
1.2600796508789063,0.22902374267578127,-0.19669097900390625,-0.0916030534351145,0.09923664122137404,-0.5267175572519084
1.2361294555664064,0.4451742553710938,-0.6020480346679687,0.015267175572519083,0.06870229007633588,-0.3053435114503817
1.4732363891601563,0.31284942626953127,-0.5709127807617188,-0.1297709923664122,0.07633587786259542,-0.282442748091603
1.7911752319335938,0.8427474975585938,-0.8122109985351563,-1.3129770992366412,-0.05343511450381679,-0.34351145038167935
1.4127621459960937,0.10508148193359376,-0.4137396240234375,0.08396946564885496,-0.022900763358778626,-0.16030534351145037
0.8930429077148438,0.10388397216796875,-0.44607238769531254,0.32061068702290074,-0.0916030534351145,-0.061068702290076333
1.5133529663085938,0.44038421630859376,-0.6086343383789062,-0.46564885496183206,-0.15267175572519084,0.022900763358778626
1.3322296142578125,0.22483245849609376,-0.3209326171875,-0.13740458015267176,0.030534351145038167,0.007633587786259542
1.3082794189453126,0.40356079101562503,-0.3242257690429688,-0.030534351145038167,-0.015267175572519083,-0.030534351145038167
1.2391232299804689,0.3838018798828125,-0.4400848388671875,0.061068702290076333,0.07633587786259542,-0.05343511450381679
1.2576846313476564,0.35206787109375004,-0.5852828979492187,0.19083969465648853,0.15267175572519084,0.07633587786259542
1.2747491455078126,-0.10837463378906251,-0.8640032958984375,0.13740458015267176,0.07633587786259542,0.10687022900763359
1.4732363891601563,0.030835876464843752,-0.8747808837890625,0.022900763358778626,0.030534351145038167,-0.06870229007633588
1.3756393432617189,0.3649411010742188,-0.7442523193359375,-0.09923664122137404,-0.022900763358778626,-0.0916030534351145
1.3980926513671876,0.18830841064453127,-0.8678952026367188,-0.11450381679389313,-0.05343511450381679,-0.10687022900763359
0.8349636840820313,-0.36703674316406254,-0.6116281127929688,0.17557251908396945,-0.12213740458015267,0.03816793893129771
1.150806884765625,-0.0473016357421875,-0.8448431396484375,0.05343511450381679,-0.20610687022900762,0.0
1.2484039306640626,0.0185614013671875,-0.8987310791015626,-0.32061068702290074,-0.183206106870229,-0.007633587786259542
1.43940673828125,0.164058837890625,-0.6855743408203125,-0.732824427480916,-0.07633587786259542,-0.1450381679389313
1.057401123046875,-0.03502716064453125,-0.24818389892578127,0.1984732824427481,0.08396946564885496,0.0
1.01309326171875,0.2137554931640625,-0.35685791015625,0.04580152671755725,-0.061068702290076333,-0.03816793893129771
1.0600955200195312,-0.034129028320312504,-0.6158193969726563,0.3053435114503817,0.022900763358778626,-0.04580152671755725
1.0747650146484375,-0.39278320312500004,-0.6020480346679687,0.4351145038167939,0.1450381679389313,0.007633587786259542
1.1286529541015626,-0.5652246093750001,-0.580792236328125,0.3129770992366412,0.030534351145038167,0.030534351145038167
0.963995361328125,-0.580792236328125,-0.7472460937500001,0.007633587786259542,-0.08396946564885496,-0.0916030534351145
0.9897418212890625,-0.4876858520507813,-0.6568341064453125,0.061068702290076333,-0.07633587786259542,-0.08396946564885496
1.071471862792969,-0.48648834228515625,-0.55564453125,0.08396946564885496,-0.03816793893129771,-0.007633587786259542
1.0241702270507813,-0.7023394775390626,-0.5116360473632813,-0.04580152671755725,0.0,0.0
1.0346484375,-0.6424639892578126,-0.47032196044921876,-0.04580152671755725,-0.015267175572519083,-0.015267175572519083
1.0190808105468752,-0.6798861694335938,-0.501756591796875,0.015267175572519083,-0.007633587786259542,-0.015267175572519083
1.0098001098632814,-0.6388714599609375,-0.528101806640625,0.015267175572519083,-0.007633587786259542,-0.015267175572519083
0.9861492919921876,-0.6149212646484375,-0.53887939453125,0.015267175572519083,-0.022900763358778626,-0.007633587786259542
0.607137451171875,-0.389190673828125,-0.10627899169921876,0.6335877862595419,-0.06870229007633588,0.07633587786259542
-1.179547119140625,1.2989987182617189,-0.45026367187500005,0.3282442748091603,-0.33587786259541985,0.41221374045801523
-0.9867480468750001,-1.4429992675781251,-0.4954696655273438,-0.5038167938931297,-0.23664122137404578,1.6335877862595418
0.7625143432617187,-1.7208215332031251,-0.5122348022460937,-0.34351145038167935,-0.16030534351145037,0.46564885496183206
1.3082794189453126,-2.78540771484375,-0.8535250854492188,0.2748091603053435,0.38167938931297707,-1.1526717557251909
-2.509681091308594,-4.5146118164062505,0.5990542602539063,1.213740458015267,0.564885496183206,-2.946564885496183
-2.144739990234375,-0.8628057861328126,-1.5396981811523438,0.7938931297709924,-1.4961832061068703,-0.6717557251908397
1.5028747558593751,0.08232879638671875,-2.3474185180664064,-0.3129770992366412,-0.061068702290076333,-0.282442748091603
2.0755838012695316,-0.5152285766601563,-1.1121871948242188,-0.34351145038167935,0.9923664122137404,0.6641221374045801
-0.053887939453125006,-1.3947994995117188,0.13980926513671876,-1.4885496183206106,1.2213740458015268,1.648854961832061
-2.8455825805664063,-0.52929931640625,0.7128176879882813,-1.8473282442748091,1.0,1.8778625954198473
-2.967728576660156,-2.229463806152344,0.48798522949218753,-0.33587786259541985,0.366412213740458,2.183206106870229
-0.17453704833984376,-1.9136206054687501,-0.2613565063476563,-0.7938931297709924,-0.5343511450381679,1.0305343511450382
1.7429754638671875,-1.6366964721679689,-0.178428955078125,-0.022900763358778626,-0.09923664122137404,-0.549618320610687
1.2115805053710937,-2.4827371215820313,-0.7062313842773438,0.34351145038167935,0.4427480916030534,-1.6412213740458015
-1.1906240844726563,-3.47996337890625,0.2664459228515625,0.7099236641221374,0.3129770992366412,-2.595419847328244
-2.8728259277343753,-2.0546273803710937,0.46912445068359376,1.8625954198473282,-1.465648854961832,-2.0534351145038165
0.14400054931640627,0.08083190917968751,-1.9953506469726563,0.2595419847328244,-0.8625954198473282,-0.5114503816793893
1.8043478393554688,0.046403503417968756,-0.30446685791015626,-0.45038167938931295,0.9083969465648855,0.4198473282442748
1.17595458984375,-1.409468994140625,0.8810678100585938,-0.7251908396946565,1.0229007633587786,1.114503816793893
1.0568023681640626,-1.0196795654296875,0.6337820434570313,-1.015267175572519,0.6793893129770993,0.8625954198473282
0.69216064453125,-0.8888516235351563,0.12274475097656251,-1.0763358778625953,0.38167938931297707,0.732824427480916
1.1226654052734375,-1.0175839233398438,0.02125579833984375,-0.42748091603053434,0.37404580152671757,0.549618320610687
1.6390914916992188,-0.8852590942382813,-0.14340179443359377,-0.4809160305343511,0.282442748091603,0.19083969465648853
1.68369873046875,-0.6113287353515625,-0.07454498291015625,-0.5801526717557252,0.12213740458015267,-0.2595419847328244
1.4735357666015625,0.16854949951171877,-0.06197113037109375,-0.09923664122137404,0.2213740458015267,-0.40458015267175573
1.2579840087890626,0.8349636840820313,-0.4236190795898438,-0.06870229007633588,0.16030534351145037,-0.2595419847328244
1.3756393432617189,1.1792477416992189,-0.1730401611328125,-0.7251908396946565,-0.183206106870229,-0.05343511450381679
1.6690292358398438,0.2900967407226563,-0.8508306884765625,-0.10687022900763359,-0.061068702290076333,-0.1450381679389313
0.97477294921875,0.5104385375976562,-0.5260061645507813,0.061068702290076333,-0.09923664122137404,-0.022900763358778626
1.4435980224609375,0.6466552734375001,-0.6628216552734375,-0.0916030534351145,-0.1450381679389313,0.015267175572519083
1.5495776367187502,0.7418572998046875,-0.5484594726562501,-0.46564885496183206,-0.022900763358778626,0.022900763358778626
1.3555810546875,0.41284149169921874,-0.29458740234375,-0.1450381679389313,0.05343511450381679,0.022900763358778626
1.3235476684570313,0.6825805664062501,-0.35476226806640626,-0.0916030534351145,-0.030534351145038167,-0.0916030534351145
1.2663665771484376,0.5275030517578125,-0.41344024658203127,0.13740458015267176,0.030534351145038167,-0.06870229007633588
1.2391232299804689,0.4421804809570313,-0.6376739501953125,0.3511450381679389,0.08396946564885496,0.030534351145038167
1.1918215942382813,0.03562591552734375,-0.6709048461914063,0.2748091603053435,0.022900763358778626,0.09923664122137404
1.2196636962890626,-0.03682342529296875,-0.7705975341796876,0.16793893129770993,0.022900763358778626,0.030534351145038167
1.3654605102539064,0.21315673828125,-0.820294189453125,0.08396946564885496,0.0,-0.08396946564885496
1.2283456420898438,0.33679962158203125,-0.8906478881835938,0.030534351145038167,-0.06870229007633588,-0.06870229007633588
1.13284423828125,0.11945159912109375,-0.9888436889648438,-0.17557251908396945,-0.04580152671755725,-0.03816793893129771
1.1349398803710937,0.23171813964843752,-0.9136999511718751,-0.19083969465648853,-0.12213740458015267,0.03816793893129771
1.213077392578125,0.21944366455078126,-0.4846920776367188,-0.3511450381679389,0.030534351145038167,0.06870229007633588
1.1085946655273438,0.26315277099609374,-0.40356079101562503,0.0,0.03816793893129771,0.007633587786259542
1.1073971557617188,0.3065625,-0.5460644531250001,0.12213740458015267,0.04580152671755725,-0.06870229007633588
1.114582214355469,0.07274871826171875,-0.520916748046875,0.34351145038167935,0.061068702290076333,-0.030534351145038167
1.0484197998046876,-0.10867401123046876,-0.6756948852539063,0.5038167938931297,0.05343511450381679,0.030534351145038167
1.1409274291992189,-0.35296600341796874,-0.7664062500000001,0.47328244274809156,0.007633587786259542,0.015267175572519083
1.025068359375,-0.6134243774414063,-0.743653564453125,0.3969465648854962,-0.030534351145038167,0.0
0.9520202636718751,-0.45744873046875,-0.8649014282226563,0.12213740458015267,-0.11450381679389313,-0.11450381679389313
1.0439291381835938,-0.4505630493164063,-0.6200106811523438,0.07633587786259542,-0.04580152671755725,-0.030534351145038167
1.0388397216796876,-0.5295986938476562,-0.5529501342773437,0.0,0.0,0.015267175572519083
1.0145901489257814,-0.6888674926757813,-0.5146298217773437,0.015267175572519083,0.0,0.015267175572519083
1.0451266479492187,-0.6415658569335938,-0.5020559692382813,-0.061068702290076333,-0.030534351145038167,-0.022900763358778626
0.9289682006835938,-0.5466632080078125,-0.5358856201171875,-0.10687022900763359,-0.030534351145038167,-0.022900763358778626
0.9720785522460939,-0.6523434448242188,-0.520916748046875,0.007633587786259542,-0.007633587786259542,-0.007633587786259542
0.45146118164062504,-0.5709127807617188,-0.5679190063476562,0.07633587786259542,-0.05343511450381679,0.061068702290076333
-0.2832110595703125,1.4429992675781251,-0.5412744140625,0.42748091603053434,-0.29770992366412213,0.3511450381679389
-1.2744497680664064,0.3074606323242188,0.42002655029296876,-0.07633587786259542,-0.22900763358778625,1.4580152671755724
-0.8867559814453125,-0.5568420410156251,-0.8379574584960938,-0.2595419847328244,-0.1297709923664122,1.2748091603053435
0.27991790771484376,-1.5941848754882812,-0.5008584594726563,0.23664122137404578,-0.015267175572519083,0.183206106870229
1.1750564575195312,-2.628533935546875,-0.8316705322265625,-0.35877862595419846,0.16030534351145037,-1.4580152671755724
0.2347119140625,-4.532873840332032,0.0940045166015625,0.46564885496183206,0.45038167938931295,-3.0076335877862594
-2.7357110595703125,-4.921465759277344,1.1990066528320313,2.7404580152671754,-0.5572519083969465,-2.778625954198473
-2.9093499755859376,-1.7759069824218752,-1.4298266601562502,1.8854961832061068,-1.9541984732824427,-0.7709923664122137
0.8631051635742188,0.023351440429687502,-2.9401858520507815,-0.7404580152671756,-0.32061068702290074,-0.282442748091603
1.661844177246094,-0.7056326293945313,-1.6124468994140626,0.0,0.8473282442748091,0.7022900763358778
-1.4349160766601563,-1.6878900146484377,0.8271798706054688,-1.1221374045801527,1.6564885496183206,1.7099236641221374
-2.6734405517578126,-2.1201910400390624,0.3960763549804688,-0.9618320610687022,0.46564885496183206,2.0534351145038165
-0.44756927490234377,-1.3717474365234377,-0.45265869140625004,-1.0305343511450382,-0.41221374045801523,1.0916030534351144
1.30049560546875,-1.8684146118164064,-0.338895263671875,0.06870229007633588,-0.19083969465648853,0.21374045801526717
1.5310162353515626,-1.6474740600585938,-0.781973876953125,0.08396946564885496,0.20610687022900762,-0.9541984732824427
0.2951861572265625,-2.70158203125,-0.9265731811523438,0.26717557251908397,0.4427480916030534,-2.1297709923664123
-2.850971374511719,-2.7668463134765626,0.9822573852539063,2.2748091603053435,-0.5801526717557252,-2.946564885496183
-3.101250915527344,-1.4316229248046877,-0.5227130126953126,1.3740458015267174,-1.4809160305343512,-1.8015267175572518
-0.5125341796875,0.047900390625000004,-1.7797988891601564,0.6717557251908397,-1.0305343511450382,-0.6030534351145038
1.7597406005859375,-0.34817596435546877,-1.2148736572265626,-0.061068702290076333,0.8015267175572519,0.5419847328244275
1.1798464965820312,-0.91250244140625,0.15687377929687502,-0.7938931297709924,1.2290076335877862,0.8625954198473282
1.1178753662109375,-1.47533203125,1.0975177001953125,-0.8549618320610687,0.9770992366412213,0.9541984732824427
1.1672726440429688,-0.83107177734375,0.7741900634765625,-1.099236641221374,0.5038167938931297,0.83206106870229
1.41066650390625,-0.4577481079101563,-0.2149530029296875,-0.16793893129770993,0.183206106870229,0.25190839694656486
1.4624588012695314,-0.16735198974609375,-0.15417938232421877,0.16030534351145037,0.1450381679389313,-0.015267175572519083
1.5831079101562502,-0.09011260986328125,-0.03382965087890625,0.05343511450381679,0.030534351145038167,-0.16030534351145037
1.4283297729492188,0.2655477905273438,-0.47301635742187503,0.04580152671755725,0.0,-0.09923664122137404
1.4684463500976563,0.32302825927734374,-0.5550457763671875,-0.24427480916030533,-0.007633587786259542,-0.04580152671755725
1.4082714843750002,0.0796343994140625,-0.5550457763671875,0.13740458015267176,0.07633587786259542,0.015267175572519083
1.3468991088867188,0.229921875,-0.5517526245117188,-0.1297709923664122,-0.022900763358778626,0.04580152671755725
1.5211367797851563,-0.06855743408203126,-0.6427633666992187,0.07633587786259542,-0.015267175572519083,0.022900763358778626
1.5441888427734376,0.21046234130859376,-0.7490423583984376,-0.13740458015267176,0.0,-0.11450381679389313
1.6615447998046875,0.4517605590820313,-0.7966433715820312,-0.42748091603053434,-0.05343511450381679,-0.17557251908396945
1.0346484375,-0.00389190673828125,-0.6313870239257813,-0.20610687022900762,-0.15267175572519084,-0.15267175572519084
0.8894503784179688,0.29488677978515626,-0.805924072265625,-0.12213740458015267,-0.19083969465648853,-0.10687022900763359
1.4768289184570313,0.36643798828125,-0.8903485107421876,-0.16030534351145037,-0.24427480916030533,0.030534351145038167
1.2522958374023438,0.6074368286132813,-0.54366943359375,-0.6870229007633587,-0.03816793893129771,0.07633587786259542
1.2588821411132813,0.547261962890625,-0.3688330078125,0.1297709923664122,0.07633587786259542,-0.007633587786259542
1.0708731079101563,0.6236032104492187,-0.3838018798828125,-0.015267175572519083,0.09923664122137404,-0.06870229007633588
1.2978012084960937,0.26075775146484376,-0.5595364379882812,0.4961832061068702,0.11450381679389313,0.10687022900763359
1.1325448608398438,0.0056881713867187505,-0.996328125,0.20610687022900762,-0.007633587786259542,0.09923664122137404
1.2624746704101564,0.06496490478515625,-1.0906320190429688,0.015267175572519083,-0.030534351145038167,-0.03816793893129771
1.25259521484375,0.2544708251953125,-0.8684939575195313,0.16793893129770993,-0.015267175572519083,-0.04580152671755725
1.3956976318359375,0.3403921508789063,-0.9858499145507813,-0.015267175572519083,-0.04580152671755725,-0.09923664122137404
1.2139755249023438,-0.18052459716796876,-0.9217831420898438,0.11450381679389313,-0.03816793893129771,-0.1297709923664122
0.4424798583984375,-0.4888833618164063,-0.7963439941406251,0.20610687022900762,-0.07633587786259542,-0.022900763358778626
1.1346405029296875,0.01466949462890625,-1.0624905395507813,-0.03816793893129771,-0.23664122137404578,0.022900763358778626
1.2259506225585939,0.28680358886718754,-0.9714797973632813,-0.6412213740458015,-0.2213740458015267,-0.022900763358778626
1.0316546630859376,0.015867004394531252,-0.41583526611328125,-0.2748091603053435,0.07633587786259542,0.1297709923664122
0.9466314697265625,0.14669494628906252,-0.45146118164062504,-0.015267175572519083,0.03816793893129771,0.061068702290076333
0.9002279663085938,0.31913635253906253,-0.6927593994140625,-0.08396946564885496,0.07633587786259542,-0.0916030534351145
1.0753637695312501,-0.07753875732421875,-0.5245092773437501,0.47328244274809156,0.16793893129770993,0.06870229007633588
1.0591973876953125,-0.38080810546875005,-0.7475454711914062,0.6335877862595419,0.07633587786259542,0.06870229007633588
0.9723779296875,-0.504151611328125,-0.9415420532226563,0.38167938931297707,-0.015267175572519083,0.03816793893129771
0.9427395629882813,-0.5601351928710938,-0.9035211181640626,0.21374045801526717,-0.05343511450381679,-0.04580152671755725
0.9352551269531251,-0.5287005615234375,-0.8370593261718751,0.11450381679389313,-0.11450381679389313,-0.08396946564885496
0.9514215087890625,-0.5116360473632813,-0.6792874145507812,0.04580152671755725,-0.0916030534351145,-0.08396946564885496
0.9391470336914063,-0.44726989746093754,-0.6834786987304687,0.06870229007633588,-0.030534351145038167,-0.015267175572519083
0.9415420532226563,-0.5966592407226563,-0.6481521606445313,-0.061068702290076333,0.007633587786259542,0.022900763358778626
0.9283694458007813,-0.6319857788085937,-0.6230044555664063,-0.03816793893129771,0.030534351145038167,0.030534351145038167
0.9235794067382813,-0.6319857788085937,-0.6083349609375001,-0.022900763358778626,0.04580152671755725,0.022900763358778626
0.9080117797851563,-0.5828878784179687,-0.61072998046875,-0.06870229007633588,0.022900763358778626,0.007633587786259542
0.8942404174804688,-0.536484375,-0.5969586181640625,-0.09923664122137404,-0.022900763358778626,-0.015267175572519083
0.8963360595703126,-0.5550457763671875,-0.6409671020507813,0.007633587786259542,-0.022900763358778626,-0.015267175572519083
0.8900491333007813,-0.4939727783203125,-0.7035369873046875,0.022900763358778626,-0.007633587786259542,-0.007633587786259542
0.8307723999023438,-0.4727169799804688,-0.6948550415039063,0.022900763358778626,-0.015267175572519083,0.0
0.11406280517578125,0.8116122436523437,-0.8786727905273438,0.4809160305343511,-0.21374045801526717,0.29770992366412213
-1.1684701538085938,0.9119036865234376,-0.08562194824218751,-0.183206106870229,-0.5267175572519084,1.114503816793893
-2.2375469970703126,-0.014070739746093752,-0.3454815673828125,-0.11450381679389313,-0.3053435114503817,1.8244274809160304
-1.5118560791015625,0.00928070068359375,-0.6493496704101562,-0.183206106870229,-0.3053435114503817,1.3893129770992365
1.2121792602539063,-1.5226336669921876,-0.729283447265625,0.19083969465648853,0.13740458015267176,0.06870229007633588
1.0774594116210938,-2.182162170410156,-1.0148895263671875,0.22900763358778625,0.6717557251908397,-1.3740458015267174
-1.8250048828125,-3.998185729980469,-0.5263055419921875,0.7175572519083969,0.7480916030534351,-2.854961832061069
-2.937491455078125,-2.750380554199219,0.2924917602539063,2.6259541984732824,-2.16793893129771,-1.9541984732824427
-2.0890557861328127,-1.7800982666015626,-0.8415499877929687,1.0687022900763359,-1.9312977099236641,-1.0381679389312977
0.844244384765625,-1.0295590209960939,-2.8422894287109375,-0.16030534351145037,-0.5267175572519084,-0.5343511450381679
1.8145266723632814,-0.0975970458984375,-2.2614971923828127,0.3129770992366412,0.6870229007633587,0.03816793893129771
-0.5745053100585937,-1.5549664306640625,0.16495697021484376,-1.564885496183206,2.0229007633587783,1.1526717557251909
-2.998265075683594,-2.301314392089844,0.741258544921875,-1.3435114503816794,1.3511450381679388,1.984732824427481
-1.6822018432617187,-1.2645703125,0.11765533447265626,-1.099236641221374,0.5267175572519084,1.450381679389313
0.607137451171875,-2.629432067871094,0.307760009765625,-0.6183206106870229,-0.03816793893129771,0.7633587786259541
1.5480807495117188,-2.6063800048828125,0.1694476318359375,0.3511450381679389,-0.1297709923664122,-1.0076335877862594
-0.140108642578125,-2.9021649169921875,0.28740234375,0.366412213740458,-0.366412213740458,-2.3664122137404577
-2.6255401611328124,-2.634521484375,0.7771838378906251,1.83206106870229,-1.213740458015267,-2.7709923664122136
-3.1087353515625002,-1.8426681518554688,-0.4290078735351563,1.6412213740458015,-1.9389312977099236,-2.114503816793893
-1.746867370605469,-1.25738525390625,-1.3894107055664062,1.2900763358778626,-1.4274809160305344,-1.0229007633587786
0.8235873413085938,-0.3059637451171875,-2.292632446289063,-0.21374045801526717,-0.2595419847328244,-0.5114503816793893
1.773212585449219,0.4870870971679688,-0.6888674926757813,-0.5038167938931297,1.1526717557251909,0.0
0.775986328125,-0.5957611083984375,0.3673361206054688,-0.9618320610687022,1.1755725190839694,0.6412213740458015
1.1439212036132813,-1.6094531250000002,1.0235714721679687,-0.9312977099236641,0.9694656488549618,1.0076335877862594
1.4229409790039063,-0.8783734130859375,0.5706134033203125,-1.8091603053435115,0.5419847328244275,0.8015267175572519
1.5025753784179687,-0.09819580078125001,-0.0389190673828125,-0.366412213740458,0.20610687022900762,0.2748091603053435
1.6717236328125,-0.017663269042968752,-0.16016693115234376,-0.015267175572519083,0.22900763358778625,0.07633587786259542
1.8495538330078125,0.6086343383789062,-0.13681549072265625,-0.46564885496183206,0.11450381679389313,-0.33587786259541985
1.4495855712890626,1.8079403686523439,0.09041198730468751,-0.21374045801526717,-0.09923664122137404,0.022900763358778626
1.6399896240234375,0.3715274047851563,-0.4697232055664063,0.2900763358778626,-0.2748091603053435,-0.12213740458015267
1.6720230102539064,1.152902526855469,-0.296982421875,-0.6641221374045801,-0.183206106870229,-0.03816793893129771
1.3010943603515626,0.48978149414062505,-0.0700543212890625,-0.015267175572519083,0.030534351145038167,0.0916030534351145
1.5840060424804687,0.6194119262695312,-0.13621673583984376,0.16030534351145037,0.08396946564885496,0.030534351145038167
1.3118719482421877,0.6822811889648438,-0.2601589965820313,0.22900763358778625,0.08396946564885496,-0.09923664122137404
1.2765454101562501,0.7705975341796876,-0.20686981201171875,0.022900763358778626,0.07633587786259542,-0.04580152671755725
1.5013778686523438,0.14100677490234376,-0.34907409667968753,0.5572519083969465,0.0916030534351145,0.2213740458015267
1.3570779418945313,-0.003592529296875,-0.6253994750976563,0.13740458015267176,0.0,0.08396946564885496
1.529219970703125,0.26854156494140624,-0.7310797119140625,0.007633587786259542,-0.04580152671755725,-0.1297709923664122
1.4295272827148438,0.647852783203125,-0.6385720825195312,0.04580152671755725,-0.05343511450381679,-0.07633587786259542
1.208287353515625,0.09909393310546875,-0.6508465576171876,-0.08396946564885496,-0.0916030534351145,-0.08396946564885496
0.8855584716796876,-0.35715728759765625,-0.702938232421875,0.46564885496183206,-0.0916030534351145,0.022900763358778626
1.4196478271484376,0.21944366455078126,-0.8005352783203126,-0.21374045801526717,-0.1984732824427481,-0.022900763358778626
1.6744180297851563,0.29368927001953127,-0.7637118530273438,-0.7862595419847328,-0.15267175572519084,-0.07633587786259542
1.00351318359375,0.23171813964843752,-0.3499722290039063,-0.6641221374045801,0.04580152671755725,0.0916030534351145
1.182840270996094,0.2796185302734375,-0.18112335205078126,-0.19083969465648853,0.03816793893129771,0.07633587786259542
1.191522216796875,0.23381378173828127,-0.47151947021484375,0.6030534351145038,0.07633587786259542,0.061068702290076333
1.1657757568359375,0.052690429687500005,-0.5858816528320313,0.282442748091603,0.09923664122137404,-0.061068702290076333
1.0900332641601562,0.03502716064453125,-0.5227130126953126,0.2900763358778626,0.04580152671755725,0.022900763358778626
1.2846286010742187,-0.42421783447265626,-0.5912704467773438,0.45038167938931295,0.03816793893129771,0.0916030534351145
1.0615924072265626,-0.5846841430664063,-0.6029461669921875,0.564885496183206,-0.06870229007633588,0.015267175572519083
1.0579998779296875,-0.43739044189453125,-0.6457571411132813,-0.030534351145038167,-0.12213740458015267,-0.06870229007633588
1.1169772338867188,-0.6523434448242188,-0.5361849975585937,-0.05343511450381679,-0.10687022900763359,-0.11450381679389313
1.0966195678710937,-0.513731689453125,-0.434696044921875,0.2595419847328244,-0.03816793893129771,-0.04580152671755725
1.0819500732421876,-0.458646240234375,-0.44307861328125003,-0.0916030534351145,0.0,-0.015267175572519083
1.086141357421875,-0.72090087890625,-0.39248382568359375,-0.09923664122137404,0.0,-0.007633587786259542
1.071771240234375,-0.6816824340820313,-0.31823822021484377,-0.06870229007633588,-0.022900763358778626,-0.022900763358778626
1.0184820556640626,-0.6460565185546875,-0.35176849365234375,-0.022900763358778626,-0.015267175572519083,-0.022900763358778626
1.0313552856445314,-0.6409671020507813,-0.4233197021484375,0.015267175572519083,-0.007633587786259542,-0.007633587786259542
0.9858499145507813,-0.5622308349609375,-0.4439767456054688,-0.030534351145038167,-0.022900763358778626,-0.007633587786259542
0.71132080078125,-0.1790277099609375,-0.731678466796875,-0.282442748091603,-0.061068702290076333,0.13740458015267176
-0.15148498535156252,1.0924282836914063,-0.36404296875000003,0.37404580152671757,-0.38167938931297707,0.3511450381679389
-1.858235778808594,0.829874267578125,0.4029620361328125,0.015267175572519083,-0.7786259541984732,1.450381679389313
-2.2447320556640626,-1.0735675048828126,-0.3948788452148438,0.17557251908396945,-0.4961832061068702,1.7022900763358777
1.7809963989257813,-1.918111267089844,-0.7547305297851563,-0.03816793893129771,0.25190839694656486,-0.42748091603053434
0.5766009521484375,-3.0302984619140627,-1.462159423828125,0.09923664122137404,0.9007633587786259,-1.7557251908396947
-2.9536578369140627,-4.095782775878907,-0.0017962646484375,0.8091603053435115,1.129770992366412,-2.8625954198473282
-2.956651611328125,-4.511318664550782,1.4235397338867188,3.5877862595419847,-1.0687022900763359,-2.931297709923664
-3.1835797119140627,-2.7434948730468753,-0.07424560546875,1.5877862595419847,-2.16793893129771,-1.0381679389312977
-0.24908203125,-1.65974853515625,-2.24892333984375,0.183206106870229,-1.198473282442748,-0.4961832061068702
1.6795074462890627,-0.2601589965820313,-2.7590625,0.2595419847328244,0.21374045801526717,-0.19083969465648853
1.70525390625,-0.2496807861328125,-1.4762301635742188,-0.48854961832061067,1.3206106870229006,0.1297709923664122
0.21525238037109376,-0.34368530273437503,0.475411376953125,-1.6259541984732824,2.145038167938931,0.7862595419847328
-2.2662872314453124,-2.4860302734375,1.0999127197265626,-0.648854961832061,1.6030534351145038,2.33587786259542
-2.797083435058594,-2.658172302246094,0.9598040771484375,-0.83206106870229,0.8244274809160305,1.9312977099236641
-0.4631369018554688,-2.8464807128906253,0.7786807250976563,-0.83206106870229,0.282442748091603,1.4732824427480915
2.5530908203125002,-2.5812322998046877,0.29608428955078125,-0.2595419847328244,-0.08396946564885496,-0.46564885496183206
1.62142822265625,-2.6830206298828125,-0.012573852539062501,0.04580152671755725,-0.03816793893129771,-1.5877862595419847
-1.7947677612304689,-2.7812164306640628,0.9708810424804688,0.7099236641221374,-0.37404580152671757,-2.877862595419847
-3.0189221191406252,-3.0225146484375003,1.593885498046875,2.32824427480916,-1.4122137404580153,-2.618320610687023
-2.8330087280273437,-2.0740869140625002,-0.4424798583984375,1.8473282442748091,-1.5572519083969465,-1.297709923664122
-0.02155517578125,-1.2783416748046876,-1.6747174072265625,0.4427480916030534,-0.7480916030534351,-0.5572519083969465
1.1666738891601562,-0.20657043457031252,-2.040257263183594,0.1450381679389313,0.09923664122137404,-0.07633587786259542
1.5229330444335938,-0.05718109130859375,-1.07296875,-0.6106870229007634,1.1221374045801527,0.1984732824427481
-0.41074584960937505,-0.966390380859375,0.49097900390625004,-1.5725190839694656,1.3587786259541985,1.1374045801526718
-0.239501953125,-1.4783258056640625,0.9044192504882813,-1.4809160305343512,0.7251908396946565,1.3129770992366412
0.5577401733398438,-1.1154803466796877,0.39008880615234376,-0.9541984732824427,0.33587786259541985,1.0
1.2166699218750001,-0.7598199462890626,0.028141479492187503,-0.6793893129770993,0.22900763358778625,0.5877862595419847
1.6929794311523438,-0.14400054931640627,-0.27452911376953126,0.04580152671755725,0.3129770992366412,-0.03816793893129771
1.8019528198242187,-0.05957611083984375,-0.085023193359375,-0.07633587786259542,0.3053435114503817,-0.34351145038167935
1.7869839477539062,0.5140310668945313,-0.3035687255859375,-0.6564885496183206,0.3969465648854962,-0.4961832061068702
1.6591497802734376,0.30985565185546876,0.1676513671875,-1.0229007633587786,0.3053435114503817,-0.3969465648854962
0.8056246948242188,0.6544390869140625,0.7517367553710937,-0.41221374045801523,0.12213740458015267,-0.34351145038167935
1.5546670532226563,1.6950750732421875,0.10059082031250001,-0.3282442748091603,-0.20610687022900762,-0.26717557251908397
1.7540524291992188,1.3454022216796875,0.044307861328125,-0.26717557251908397,-0.2213740458015267,-0.20610687022900762
1.4870077514648439,0.7110214233398438,0.3457809448242188,-0.34351145038167935,-0.11450381679389313,-0.07633587786259542
1.483714599609375,0.9978250122070313,0.42272094726562504,-0.1297709923664122,-0.03816793893129771,0.03816793893129771
1.4603631591796875,0.8292755126953125,0.15477813720703126,0.3282442748091603,0.015267175572519083,0.07633587786259542
1.5295193481445313,0.6032455444335938,0.08771759033203125,0.41221374045801523,0.04580152671755725,0.015267175572519083
1.312470703125,0.5394781494140626,-0.047900390625000004,0.366412213740458,0.03816793893129771,-0.06870229007633588
1.3322296142578125,0.0089813232421875,-0.05837860107421875,0.6946564885496183,-0.030534351145038167,0.17557251908396945
1.1636801147460938,-0.20657043457031252,-0.4302053833007813,0.4580152671755725,-0.16793893129770993,0.19083969465648853
1.3391152954101564,-0.07634124755859376,-0.6673123168945313,0.11450381679389313,-0.1297709923664122,0.10687022900763359
1.3555810546875,0.209564208984375,-0.808319091796875,0.15267175572519084,-0.08396946564885496,-0.16030534351145037
1.3130694580078126,-0.092208251953125,-0.5224136352539063,-0.1984732824427481,0.06870229007633588,-0.26717557251908397
0.8214916992187501,-0.3047662353515625,-0.3362008666992188,0.2213740458015267,0.05343511450381679,-0.1450381679389313
1.1720626831054688,0.37511993408203126,-0.6912625122070313,-0.3511450381679389,-0.030534351145038167,-0.030534351145038167
1.3660592651367187,0.15837066650390627,-0.26315277099609374,-0.4198473282442748,0.05343511450381679,0.03816793893129771
1.1346405029296875,-0.06586303710937501,-0.28919860839843753,-0.1984732824427481,0.08396946564885496,0.13740458015267176
1.24301513671875,-0.014070739746093752,-0.3634442138671875,-0.05343511450381679,0.015267175572519083,0.015267175572519083
1.1130853271484376,0.058977355957031255,-0.30716125488281254,0.030534351145038167,0.04580152671755725,-0.07633587786259542
1.1657757568359375,-0.28680358886718754,-0.154478759765625,0.4580152671755725,0.0916030534351145,0.030534351145038167
1.191222839355469,-0.7047344970703125,-0.4876858520507813,0.8931297709923663,-0.03816793893129771,0.04580152671755725
1.0858419799804688,-0.7873626708984376,-0.6325845336914063,0.47328244274809156,-0.17557251908396945,-0.07633587786259542
1.0747650146484375,-0.7340734863281251,-0.39697448730468754,0.3053435114503817,-0.2213740458015267,-0.10687022900763359
0.9756710815429688,-0.6580316162109375,-0.295784912109375,0.15267175572519084,-0.16793893129770993,-0.0916030534351145
1.035845947265625,-0.7634124755859375,-0.19399658203125,0.1450381679389313,-0.06870229007633588,-0.022900763358778626
1.0283615112304687,-0.7328759765625,-0.16854949951171877,-0.015267175572519083,0.030534351145038167,-0.015267175572519083
1.00830322265625,-0.9307644653320313,-0.00449066162109375,0.0916030534351145,0.061068702290076333,-0.022900763358778626
1.0594967651367189,-0.908909912109375,0.055384826660156254,0.04580152671755725,0.07633587786259542,-0.030534351145038167
0.9852511596679688,-0.8373587036132812,0.04221221923828125,0.030534351145038167,0.05343511450381679,-0.007633587786259542
-0.0335302734375,0.9621990966796875,-0.26494903564453126,0.38167938931297707,-0.2213740458015267,0.09923664122137404
-1.7196240234375,-0.6583309936523438,0.4796026611328125,-0.2595419847328244,-0.42748091603053434,1.6564885496183206
-2.2779629516601565,-1.0265652465820314,0.20926483154296877,-0.4198473282442748,-0.5267175572519084,2.030534351145038
-0.7921527099609376,-1.281036071777344,-0.0580792236328125,-0.022900763358778626,-0.183206106870229,1.7251908396946565
1.0747650146484375,-1.7723144531250001,-0.4903802490234375,0.42748091603053434,0.4427480916030534,-0.3129770992366412
0.6649172973632813,-2.9560528564453126,-0.8032296752929687,0.7404580152671756,0.83206106870229,-1.9236641221374045
-2.8162435913085937,-4.753814392089844,1.76033935546875,3.0610687022900764,-1.748091603053435,-2.6259541984732824
-3.2482452392578125,-2.9392877197265626,-0.076640625,1.3206106870229006,-2.5725190839694654,-0.9847328244274809
-0.49067962646484375,-1.3822256469726564,-2.391127624511719,0.04580152671755725,-1.3893129770992365,-0.6412213740458015
1.2936099243164063,0.6038442993164063,-2.173480224609375,0.3282442748091603,0.6106870229007634,0.10687022900763359
-2.216590576171875,-1.8507513427734377,1.2385244750976563,-1.3587786259541985,1.916030534351145,1.8931297709923662
-3.0087432861328125,-2.339035949707031,2.5869204711914064,-1.465648854961832,1.5190839694656488,2.427480916030534
-2.3602917480468752,-2.53153564453125,1.0840457153320313,-0.7862595419847328,0.4809160305343511,2.1908396946564883
0.737666015625,-2.2611978149414065,0.43739044189453125,-0.2900763358778626,-0.5190839694656488,0.916030534351145
2.062411193847656,-2.01181640625,-0.38619689941406254,0.08396946564885496,-0.061068702290076333,-0.19083969465648853
1.6444802856445313,-2.3734643554687502,-0.4071533203125,0.11450381679389313,0.2748091603053435,-1.4351145038167938
-0.6508465576171876,-3.7473074340820314,-0.4029620361328125,0.41221374045801523,0.42748091603053434,-2.4885496183206106
-2.8931835937500003,-2.3605911254882814,1.8699114990234376,1.2290076335877862,-0.5190839694656488,-3.0534351145038165
-3.224295043945313,-2.424957275390625,0.9107061767578125,2.4427480916030535,-1.7557251908396947,-2.2061068702290076
-2.2998175048828124,-1.2235556030273438,-0.484991455078125,1.2290076335877862,-1.83206106870229,-0.9083969465648855
-0.16166381835937502,-0.5170248413085938,-2.478545837402344,-0.4427480916030534,-0.8625954198473282,-0.29770992366412213
1.0687774658203126,0.22363494873046877,-1.9734960937500001,0.1984732824427481,0.37404580152671757,0.13740458015267176
0.6367758178710938,-0.7798782348632813,-0.48559020996093755,-0.6793893129770993,1.8396946564885495,0.8167938931297709
-1.0205776977539063,-2.123184814453125,1.1038046264648438,-0.8244274809160305,1.4885496183206106,1.5038167938931297
1.0298583984375,-1.0337503051757813,1.4226416015625,-1.4809160305343512,0.9694656488549618,0.9770992366412213
1.06099365234375,-1.0460247802734375,0.7834707641601563,-1.2290076335877862,0.26717557251908397,0.4351145038167939
1.5513739013671877,-0.00029937744140625,0.15567626953125,-0.3129770992366412,0.19083969465648853,0.17557251908396945
1.599873046875,0.2604583740234375,0.022752685546875002,-0.13740458015267176,0.183206106870229,0.061068702290076333
1.924398193359375,0.370030517578125,-0.13711486816406251,-0.19083969465648853,0.06870229007633588,-0.007633587786259542
1.9630178833007814,0.6783892822265626,-0.25237518310546875,-0.6412213740458015,-0.030534351145038167,-0.25190839694656486
1.6992663574218752,0.9726773071289063,-0.22722747802734375,-1.0687022900763359,0.0,-0.37404580152671757
1.0011181640625,0.6388714599609375,0.259859619140625,0.3053435114503817,0.007633587786259542,-0.19083969465648853
1.768721923828125,1.1978091430664064,-0.5152285766601563,-0.4809160305343511,-0.26717557251908397,-0.06870229007633588
1.5834072875976564,0.7262896728515625,-0.2149530029296875,-0.41221374045801523,-0.08396946564885496,-0.05343511450381679
1.3537847900390625,0.6957531738281251,0.04999603271484375,0.07633587786259542,0.04580152671755725,0.007633587786259542
1.4388079833984375,0.6553372192382813,-0.2532733154296875,0.42748091603053434,0.05343511450381679,-0.030534351145038167
1.1789483642578125,0.5834866333007813,-0.15328125,0.13740458015267176,0.0,-0.12213740458015267
1.3477972412109376,0.587977294921875,-0.3933819580078125,0.26717557251908397,0.030534351145038167,-0.06870229007633588
1.4271322631835939,-0.09490264892578125,-0.39278320312500004,0.6412213740458015,0.11450381679389313,0.2213740458015267
1.22625,-0.24069946289062502,-0.4272116088867188,0.15267175572519084,0.08396946564885496,0.17557251908396945
1.4379098510742188,0.32602203369140625,-0.7397616577148438,-0.29770992366412213,0.007633587786259542,-0.007633587786259542
1.3992901611328126,0.22752685546875,-0.67300048828125,0.1297709923664122,-0.022900763358778626,-0.16793893129770993
1.4040802001953125,0.41194335937500004,-0.6613247680664063,0.030534351145038167,-0.1297709923664122,-0.20610687022900762
1.2067904663085938,-0.00748443603515625,-0.6661148071289062,-0.12213740458015267,-0.1450381679389313,-0.15267175572519084
0.8131091308593751,-0.30985565185546876,-0.5870791625976562,0.2900763358778626,-0.06870229007633588,0.061068702290076333
1.3415103149414063,0.12484039306640625,-0.7622149658203126,0.007633587786259542,-0.030534351145038167,0.06870229007633588
1.5762222290039063,0.4221221923828125,-0.6607260131835938,-0.5038167938931297,-0.03816793893129771,0.030534351145038167
1.1115884399414062,0.24099884033203126,-0.536484375,-0.9312977099236641,-0.03816793893129771,0.061068702290076333
0.9669891357421876,-0.07753875732421875,-0.2197430419921875,-0.06870229007633588,0.07633587786259542,0.15267175572519084
1.064586181640625,0.21225860595703125,-0.4029620361328125,0.366412213740458,0.04580152671755725,0.061068702290076333
1.0448272705078125,0.1790277099609375,-0.592767333984375,0.366412213740458,-0.03816793893129771,-0.06870229007633588
1.2151730346679688,0.2436932373046875,-0.6846762084960938,0.25190839694656486,-0.05343511450381679,-0.1450381679389313
1.0855426025390627,-0.2520758056640625,-0.5742059326171876,0.35877862595419846,-0.007633587786259542,-0.061068702290076333
1.14242431640625,-0.41763153076171877,-0.508941650390625,0.3893129770992366,0.03816793893129771,-0.022900763358778626
1.0600955200195312,-0.43888732910156253,-0.5655239868164063,0.24427480916030533,0.007633587786259542,-0.007633587786259542
0.9717791748046876,-0.47660888671875,-0.6185137939453126,0.26717557251908397,-0.022900763358778626,-0.05343511450381679
1.0394384765625,-0.5966592407226563,-0.53408935546875,0.12213740458015267,-0.022900763358778626,-0.08396946564885496
1.0496173095703125,-0.5930667114257813,-0.4439767456054688,0.15267175572519084,-0.015267175572519083,-0.04580152671755725
1.0361453247070314,-0.5846841430664063,-0.45804748535156253,0.08396946564885496,-0.015267175572519083,0.0
0.9981243896484375,-0.619112548828125,-0.46343627929687503,-0.03816793893129771,-0.030534351145038167,0.0
1.0056088256835938,-0.6457571411132813,-0.45235931396484375,-0.0916030534351145,-0.030534351145038167,-0.007633587786259542
0.9604028320312501,-0.5954617309570313,-0.425115966796875,-0.04580152671755725,-0.022900763358778626,0.007633587786259542
0.9672885131835938,-0.5469625854492188,-0.45684997558593754,-0.007633587786259542,-0.007633587786259542,0.015267175572519083
0.9511221313476563,-0.6137237548828125,-0.46523254394531255,0.030534351145038167,0.007633587786259542,0.022900763358778626
0.9286688232421876,-0.5619314575195313,-0.5215155029296875,-0.015267175572519083,0.007633587786259542,0.022900763358778626
0.5658233642578125,-0.017962646484375,-0.5188211059570312,-0.007633587786259542,-0.08396946564885496,0.1297709923664122
-0.6849755859375001,1.469344482421875,-0.32901580810546877,-0.022900763358778626,-0.549618320610687,0.6106870229007634
-1.7405804443359376,0.6613247680664063,0.8005352783203126,-0.061068702290076333,-0.564885496183206,1.3740458015267174
-1.0807525634765625,-1.2789404296875,-0.19908599853515627,0.1297709923664122,0.04580152671755725,1.3969465648854962
0.6882687377929688,-1.8815872192382814,-0.4858895874023438,-0.09923664122137404,-0.007633587786259542,0.35877862595419846
0.6385720825195312,-2.8734246826171876,-0.22513183593750002,0.06870229007633588,0.2213740458015267,-1.7099236641221374
-2.4402255249023437,-3.8311331176757815,0.5310955810546876,0.8778625954198473,0.12213740458015267,-2.748091603053435
-2.8865972900390626,-3.3632061767578127,1.041534118652344,3.213740458015267,-1.8473282442748091,-2.259541984732824
-2.5914111328125,-1.3079800415039062,-0.7289840698242188,1.1603053435114503,-2.2748091603053435,-0.6641221374045801
1.5693365478515626,-0.9642947387695313,-2.8788134765625,0.16793893129770993,-0.16030534351145037,-0.183206106870229
2.219284973144531,-0.13801300048828125,-1.3968951416015625,0.0916030534351145,0.9541984732824427,0.16793893129770993
-0.69695068359375,-1.3415103149414063,0.29907806396484377,-1.6106870229007633,1.8549618320610686,1.1068702290076335
-2.5357269287109374,-1.2118798828125001,1.7842895507812502,-1.4961832061068703,1.8091603053435115,1.7022900763358777
-2.6009912109375,-1.1948153686523437,0.296982421875,-0.9312977099236641,1.0076335877862594,1.7709923664122136
-1.0379415893554689,-2.0001406860351563,0.1850152587890625,-0.5419847328244275,0.5114503816793893,1.2748091603053435
1.0768606567382812,-2.3501129150390625,0.39996826171875,-0.648854961832061,0.09923664122137404,0.4427480916030534
2.065404968261719,-2.146835632324219,0.05957611083984375,-0.07633587786259542,-0.07633587786259542,-0.5877862595419847
1.2070898437500002,-2.269281005859375,-0.03502716064453125,0.17557251908396945,-0.1984732824427481,-1.7786259541984732
-2.449805603027344,-2.724334716796875,0.7490423583984376,2.1374045801526718,-0.7862595419847328,-2.4427480916030535
-2.339035949707031,-1.1822415161132813,-1.274150390625,1.549618320610687,-1.6564885496183206,-0.6335877862595419
0.5463638305664062,-0.16974700927734376,-1.6277151489257813,-0.13740458015267176,-0.7557251908396946,-0.48854961832061067
1.5184423828125,-0.4972659301757813,-1.8672171020507813,0.07633587786259542,0.45038167938931295,0.17557251908396945
1.319356384277344,0.135318603515625,-0.12034973144531251,-1.1755725190839694,1.3206106870229006,0.549618320610687
0.7481442260742188,-1.4163546752929688,0.006885681152343751,-0.6412213740458015,1.16793893129771,1.4885496183206106
-0.6367758178710938,0.1143621826171875,0.540076904296875,-1.984732824427481,1.0763358778625953,1.2519083969465647
-0.33320709228515627,-0.9247769165039063,-0.6849755859375001,-1.732824427480916,0.10687022900763359,1.2442748091603053
1.5408956909179687,-0.40236328125000004,-0.6499484252929688,-0.7404580152671756,0.015267175572519083,0.22900763358778625
1.5738272094726564,0.16076568603515626,-0.04819976806640625,-0.2900763358778626,0.32061068702290074,-0.07633587786259542
1.423839111328125,0.6679110717773438,0.23381378173828127,0.3511450381679389,0.4809160305343511,-0.20610687022900762
1.3882131958007813,0.781973876953125,-0.10029144287109376,0.564885496183206,0.47328244274809156,-0.35877862595419846
1.4864089965820313,0.8744815063476563,-0.2628533935546875,0.40458015267175573,0.37404580152671757,-0.42748091603053434
1.4418017578125,1.6729211425781252,-0.3852987670898438,-0.366412213740458,0.3129770992366412,-0.45038167938931295
0.9154962158203126,-0.5218148803710938,-0.269439697265625,0.6870229007633587,-0.13740458015267176,0.06870229007633588
1.1789483642578125,0.08891510009765625,-0.7828720092773438,1.1068702290076335,-0.16793893129770993,-0.07633587786259542
1.6510665893554688,0.3649411010742188,-0.6589297485351563,-0.42748091603053434,-0.26717557251908397,-0.07633587786259542
1.4025833129882814,0.22573059082031252,-0.5694158935546876,-0.916030534351145,-0.10687022900763359,-0.16793893129770993
1.1684701538085938,0.49517028808593755,0.0868194580078125,-0.183206106870229,0.16793893129770993,-0.030534351145038167
1.2744497680664064,0.1790277099609375,-0.08831634521484376,0.40458015267175573,-0.030534351145038167,-0.03816793893129771
1.2876223754882814,0.14819183349609374,-0.6876699829101562,0.8473282442748091,0.030534351145038167,0.05343511450381679
1.23822509765625,-0.06855743408203126,-0.6245013427734375,0.0916030534351145,0.11450381679389313,-0.08396946564885496
1.0538085937500001,-0.4086502075195313,-0.3059637451171875,0.007633587786259542,0.11450381679389313,0.16793893129770993
1.1154803466796877,-0.3541635131835938,-0.5769003295898438,0.05343511450381679,0.04580152671755725,0.12213740458015267
1.3286370849609375,-0.09011260986328125,-0.69216064453125,0.0916030534351145,0.007633587786259542,-0.07633587786259542
1.2534933471679688,0.06256988525390625,-0.6493496704101562,0.022900763358778626,-0.07633587786259542,-0.17557251908396945
0.9613009643554687,-0.3107537841796875,-0.7107220458984376,0.07633587786259542,-0.15267175572519084,-0.11450381679389313
1.0711724853515625,-0.33560211181640626,-0.6966513061523438,0.19083969465648853,-0.09923664122137404,0.061068702290076333
1.2451107788085938,-0.07694000244140625,-0.6158193969726563,-0.3282442748091603,-0.07633587786259542,0.08396946564885496
1.09931396484375,-0.02664459228515625,-0.44038421630859376,-0.4351145038167939,0.061068702290076333,0.08396946564885496
0.9080117797851563,-0.219144287109375,-0.3266207885742188,-0.19083969465648853,0.030534351145038167,0.061068702290076333
1.01788330078125,0.020357666015625,-0.49247589111328127,-0.05343511450381679,-0.05343511450381679,-0.06870229007633588
0.9840536499023438,0.0628692626953125,-0.55564453125,-0.03816793893129771,-0.030534351145038167,-0.13740458015267176
0.8792715454101563,-0.13561798095703126,-0.5032534790039063,0.3511450381679389,0.08396946564885496,-0.061068702290076333
1.0505154418945313,-0.4870870971679688,-0.5029541015625,0.5877862595419847,0.07633587786259542,0.015267175572519083
0.8732839965820313,-0.7589218139648438,-0.56282958984375,0.4809160305343511,0.030534351145038167,0.015267175572519083
0.9487271118164063,-0.699345703125,-0.6259982299804688,0.1450381679389313,-0.06870229007633588,-0.09923664122137404
0.8589138793945313,-0.73048095703125,-0.568817138671875,0.08396946564885496,-0.05343511450381679,-0.11450381679389313
0.98914306640625,-0.6340814208984376,-0.3990701293945313,0.10687022900763359,-0.022900763358778626,-0.022900763358778626
0.9160949707031251,-0.59396484375,-0.469423828125,-0.11450381679389313,-0.022900763358778626,0.015267175572519083
0.9346563720703126,-0.731678466796875,-0.40475830078125,-0.007633587786259542,-0.007633587786259542,0.015267175572519083
0.9083111572265625,-0.7349716186523438,-0.42302032470703127,-0.061068702290076333,-0.022900763358778626,0.0
0.8921447753906251,-0.6697073364257813,-0.46493316650390626,0.022900763358778626,-0.015267175572519083,-0.007633587786259542
0.8720864868164063,-0.6277944946289062,-0.5020559692382813,0.015267175572519083,-0.022900763358778626,-0.007633587786259542
0.8520281982421876,-0.6295907592773438,-0.5289999389648438,-0.015267175572519083,-0.015267175572519083,-0.015267175572519083
0.841849365234375,-0.6188131713867188,-0.5278024291992188,0.0,-0.015267175572519083,-0.015267175572519083
0.8247848510742188,-0.602347412109375,-0.5721102905273437,0.007633587786259542,-0.015267175572519083,-0.015267175572519083
0.8095166015625,-0.5649252319335938,-0.6176156616210938,-0.03816793893129771,-0.015267175572519083,-0.007633587786259542
0.18052459716796876,0.5451663208007813,-0.6798861694335938,0.10687022900763359,-0.08396946564885496,0.1984732824427481
-1.0373428344726563,1.2750485229492188,-0.33769775390625,0.17557251908396945,-0.2900763358778626,0.9923664122137404
-2.459086303710938,-0.3323089599609375,0.25237518310546875,0.282442748091603,0.03816793893129771,1.5572519083969465
-0.16645385742187502,-2.2635928344726564,0.0185614013671875,-0.022900763358778626,0.183206106870229,1.4274809160305344
1.82021484375,-2.7437942504882815,-0.39128631591796875,0.12213740458015267,0.06870229007633588,-0.8778625954198473
0.03682342529296875,-3.7928128051757812,-0.08232879638671875,0.23664122137404578,0.007633587786259542,-2.6030534351145036
-3.053350524902344,-3.5206787109375,0.8565188598632812,2.404580152671756,-2.1374045801526718,-1.6793893129770991
-1.4648538208007813,-1.6447796630859375,-0.8101153564453125,0.7022900763358778,-1.7557251908396947,-0.6412213740458015
1.50167724609375,-0.183218994140625,-2.3620880126953128,0.4961832061068702,0.3893129770992366,0.03816793893129771
1.5295193481445313,-0.4601431274414063,-0.861009521484375,-0.6717557251908397,1.8931297709923662,0.48854961832061067
-2.2647903442382815,-2.1408480834960937,1.8420693969726563,-1.4809160305343512,1.9618320610687021,1.5419847328244274
-2.155517578125,-1.9833755493164062,1.3439053344726564,-0.8702290076335878,1.045801526717557,1.9618320610687021
-0.19489471435546876,-2.222578125,0.47990203857421876,-0.6259541984732824,0.3893129770992366,1.381679389312977
1.6133450317382814,-2.4105871582031253,0.5038522338867187,-0.0916030534351145,0.05343511450381679,0.2900763358778626
1.714833984375,-2.4770489501953126,0.336500244140625,0.32061068702290074,-0.26717557251908397,-1.3435114503816794
-1.1538006591796877,-2.712359619140625,0.680185546875,0.7404580152671756,-0.7251908396946565,-2.259541984732824
-2.878514099121094,-1.898052978515625,0.9642947387695313,1.8778625954198473,-1.465648854961832,-2.0076335877862594
-1.1942166137695314,-0.13801300048828125,-0.8798703002929688,0.6183206106870229,-1.5114503816793892,-0.4580152671755725
1.1786489868164063,-0.7756869506835938,-1.6073574829101562,-0.4961832061068702,-0.5877862595419847,-0.2900763358778626
1.7953665161132812,-0.6649172973632813,-1.244212646484375,0.48854961832061067,0.4961832061068702,0.1450381679389313
0.8385562133789063,-0.8211923217773438,0.07095245361328126,-0.9847328244274809,1.114503816793893,0.5190839694656488
0.4233197021484375,-1.8941610717773438,1.0154882812500001,-0.13740458015267176,0.9312977099236641,0.9083969465648855
0.9900411987304688,-0.9930349731445313,1.052611083984375,-1.2519083969465647,0.6030534351145038,0.7099236641221374
0.9630972290039063,0.27393035888671874,-0.07604187011718751,-1.5267175572519083,0.22900763358778625,0.40458015267175573
1.2948074340820312,-0.050295410156250005,-0.243094482421875,-0.4427480916030534,0.1450381679389313,0.16030534351145037
1.482217712402344,0.8487350463867188,-0.087418212890625,-0.38167938931297707,0.03816793893129771,-0.12213740458015267
1.4459930419921876,0.523311767578125,-0.0796343994140625,-0.061068702290076333,0.08396946564885496,-0.030534351145038167
1.5594570922851563,0.65384033203125,-0.25656646728515625,0.12213740458015267,0.04580152671755725,-0.04580152671755725
1.5861016845703126,0.8921447753906251,-0.6939569091796876,0.007633587786259542,-0.022900763358778626,-0.11450381679389313
1.7660275268554688,0.9196875,-0.6984475708007812,-0.6106870229007634,-0.0916030534351145,-0.2213740458015267
0.47870452880859377,0.17184265136718752,-0.22513183593750002,-0.007633587786259542,-0.08396946564885496,-0.07633587786259542
1.157991943359375,1.1588900756835938,-0.5700146484375,-0.11450381679389313,-0.13740458015267176,-0.05343511450381679
1.567540283203125,1.0364447021484375,-0.49487091064453126,-0.24427480916030533,-0.183206106870229,0.0
1.1903247070312502,0.6661148071289062,-0.247884521484375,-0.06870229007633588,0.04580152671755725,0.05343511450381679
1.1630813598632812,0.9849517822265625,-0.18112335205078126,-0.05343511450381679,-0.030534351145038167,0.022900763358778626
1.1160791015625,0.7349716186523438,-0.4409829711914063,0.1450381679389313,0.061068702290076333,-0.0916030534351145
1.264270935058594,0.329315185546875,-0.5263055419921875,0.2213740458015267,0.1450381679389313,0.15267175572519084
1.0181826782226564,-0.22064117431640626,-0.5092410278320313,0.35877862595419846,0.09923664122137404,0.1450381679389313
1.2927117919921876,0.3730242919921875,-1.00351318359375,0.17557251908396945,-0.007633587786259542,-0.05343511450381679
1.2073892211914063,0.3909869384765625,-1.0559042358398438,0.1297709923664122,-0.08396946564885496,-0.20610687022900762
0.8211923217773438,0.1802252197265625,-0.7912545776367188,-0.07633587786259542,-0.19083969465648853,-0.06870229007633588
0.8292755126953125,-0.23321502685546877,-0.7888595581054688,0.16793893129770993,-0.1297709923664122,0.04580152671755725
1.3163626098632812,-0.03442840576171875,-0.7966433715820312,0.11450381679389313,-0.07633587786259542,0.06870229007633588
1.1265573120117187,0.36823425292968753,-0.8158035278320312,-0.5954198473282443,-0.04580152671755725,-0.05343511450381679
0.8747808837890625,0.5643264770507813,-0.48559020996093755,-0.45038167938931295,-0.04580152671755725,0.09923664122137404
0.9157955932617188,-0.028141479492187503,-0.568817138671875,0.19083969465648853,0.007633587786259542,0.1297709923664122
0.9777667236328126,0.16525634765625,-0.6469546508789062,-0.030534351145038167,0.04580152671755725,-0.04580152671755725
0.93166259765625,0.15148498535156252,-0.43499542236328126,0.183206106870229,0.061068702290076333,-0.04580152671755725
1.0340496826171877,-0.0047900390625,-0.5460644531250001,0.282442748091603,0.015267175572519083,-0.022900763358778626
0.8915460205078125,-0.3703298950195313,-0.61552001953125,0.47328244274809156,-0.015267175572519083,-0.022900763358778626
0.7825726318359375,-0.4822970581054688,-0.7259902954101562,0.46564885496183206,-0.061068702290076333,-0.04580152671755725
0.7424560546875001,-0.513731689453125,-0.7274871826171876,0.08396946564885496,-0.10687022900763359,-0.12213740458015267
0.7649093627929688,-0.6029461669921875,-0.6571334838867188,0.08396946564885496,-0.07633587786259542,-0.12213740458015267
0.8975335693359375,-0.48259643554687504,-0.6110293579101563,0.10687022900763359,-0.007633587786259542,-0.09923664122137404
0.8415499877929687,-0.43379791259765627,-0.43888732910156253,0.030534351145038167,0.007633587786259542,0.03816793893129771
0.7957452392578125,-0.6466552734375001,-0.49636779785156254,-0.07633587786259542,0.0,0.06870229007633588
0.319735107421875,0.44697052001953125,-0.7670050048828125,-0.33587786259541985,-0.15267175572519084,0.22900763358778625
-0.9756710815429688,1.4229409790039063,-0.22273681640625,0.08396946564885496,-0.5572519083969465,0.8778625954198473
-1.9642153930664064,-0.14819183349609374,0.6209088134765626,0.3969465648854962,-0.061068702290076333,1.3893129770992365
-1.5881973266601563,-1.0568023681640626,0.43379791259765627,0.12213740458015267,-0.17557251908396945,1.5725190839694656
0.6403683471679688,-1.883383483886719,-0.47660888671875,-0.08396946564885496,-0.1297709923664122,0.8167938931297709
0.17333953857421877,-3.429368591308594,-0.18052459716796876,0.42748091603053434,0.1450381679389313,-2.213740458015267
-3.0892758178710937,-3.5940261840820313,2.1438418579101564,2.5725190839694654,-1.549618320610687,-2.33587786259542
-3.1889685058593753,-2.3869363403320314,0.21555175781250002,1.5419847328244274,-2.213740458015267,-0.7251908396946565
-0.2966830444335938,-1.1499087524414062,-0.9954299926757812,0.16030534351145037,-1.3969465648854962,-0.366412213740458
1.9061361694335939,-0.3320095825195313,-1.9669097900390626,0.21374045801526717,0.38167938931297707,0.015267175572519083
1.2669653320312502,-0.9930349731445313,-0.8906478881835938,-0.7633587786259541,1.648854961832061,0.46564885496183206
-1.7010626220703127,-1.953138427734375,0.9262738037109376,-1.4427480916030533,1.7862595419847327,1.6259541984732824
-2.9225225830078125,-1.0538085937500001,1.6875906372070313,-1.5038167938931297,1.8549618320610686,1.7251908396946565
-2.5830285644531252,-1.8351837158203126,0.5026547241210938,-0.9694656488549618,0.9770992366412213,1.8931297709923662
-0.8646020507812501,-1.8061441040039063,-0.0401165771484375,-1.1603053435114503,0.2748091603053435,1.2213740458015268
1.9992425537109375,-1.9902612304687501,0.3104544067382813,0.1984732824427481,0.06870229007633588,-0.2213740458015267
1.1388317871093752,-2.0899539184570313,-0.00449066162109375,0.0916030534351145,-0.21374045801526717,-1.7557251908396947
-2.6602679443359376,-1.739981689453125,0.8292755126953125,2.16793893129771,-0.9923664122137404,-2.381679389312977
-3.017724609375,-1.4163546752929688,-0.40356079101562503,1.2442748091603053,-2.0839694656488548,-0.8778625954198473
0.5517526245117188,-0.6212081909179688,-1.7555493164062501,0.183206106870229,-0.6183206106870229,-0.26717557251908397
1.4594650268554688,0.01107696533203125,-1.6223263549804687,0.16793893129770993,0.45038167938931295,0.022900763358778626
1.5376025390625,-0.34937347412109376,-0.9343569946289063,-0.3511450381679389,1.5114503816793892,0.282442748091603
-0.5685177612304688,-0.8795709228515626,1.0448272705078125,-1.198473282442748,1.366412213740458,0.916030534351145
0.089813232421875,-1.5471826171875,1.7339941406250001,-0.9312977099236641,1.0305343511450382,1.0
0.7813751220703126,0.02903961181640625,0.21884490966796877,-1.7022900763358777,0.46564885496183206,0.8473282442748091
1.400787048339844,-0.69216064453125,0.0017962646484375,-0.10687022900763359,0.19083969465648853,0.22900763358778625
1.6268170166015625,-0.14519805908203126,0.07155120849609375,-0.24427480916030533,0.13740458015267176,-0.03816793893129771
1.687291259765625,0.631087646484375,-0.032931518554687504,-0.42748091603053434,0.08396946564885496,-0.3282442748091603
1.39869140625,0.6409671020507813,-0.17573455810546876,0.4580152671755725,0.1984732824427481,-0.11450381679389313
1.4765295410156252,0.8316705322265625,-0.3933819580078125,-0.10687022900763359,0.03816793893129771,-0.0916030534351145
1.5193405151367188,0.5655239868164063,-0.4481680297851563,-0.10687022900763359,-0.007633587786259542,-0.06870229007633588
1.6983682250976564,0.7547305297851563,-0.506546630859375,-0.34351145038167935,-0.05343511450381679,-0.23664122137404578
1.5911911010742188,0.51013916015625,-0.336500244140625,-0.3282442748091603,-0.0916030534351145,-0.3129770992366412
0.6849755859375001,0.23650817871093752,-0.19968475341796876,0.061068702290076333,-0.05343511450381679,-0.15267175572519084
1.0406359863281252,0.7373666381835938,-0.5146298217773437,0.183206106870229,-0.20610687022900762,-0.030534351145038167
1.3971945190429689,0.21824615478515627,-0.5619314575195313,0.22900763358778625,-0.16030534351145037,-0.007633587786259542
1.4160552978515626,0.5188211059570312,-0.4751119995117188,-0.40458015267175573,-0.030534351145038167,-0.11450381679389313
1.2843292236328125,0.7307803344726563,-0.147293701171875,-0.12213740458015267,-0.03816793893129771,0.0916030534351145
1.050216064453125,0.6274951171875001,-0.42302032470703127,-0.46564885496183206,-0.015267175572519083,-0.015267175572519083
1.0864407348632814,0.47181884765625004,-0.3799099731445313,0.25190839694656486,0.20610687022900762,0.04580152671755725
1.2139755249023438,0.08532257080078126,-0.45834686279296877,0.4809160305343511,0.2213740458015267,0.1984732824427481
0.8711883544921876,-0.20387603759765627,-0.45295806884765627,-0.13740458015267176,0.05343511450381679,0.15267175572519084
1.2804373168945313,0.21076171875000002,-0.9705816650390625,-0.007633587786259542,0.007633587786259542,0.007633587786259542
1.2696597290039062,0.3598516845703125,-0.9355545043945312,-0.015267175572519083,-0.015267175572519083,-0.20610687022900762
1.2271481323242188,0.276624755859375,-0.7047344970703125,0.183206106870229,-0.07633587786259542,-0.12213740458015267
0.7155120849609375,-0.29488677978515626,-0.8164022827148438,0.37404580152671757,-0.15267175572519084,-0.03816793893129771
0.9134005737304688,-0.032332763671875,-0.9349557495117188,0.4198473282442748,-0.12213740458015267,0.022900763358778626
1.2786410522460938,0.11346405029296876,-0.8460406494140625,-0.5725190839694656,-0.0916030534351145,0.015267175572519083
1.041534118652344,0.17004638671875,-0.5427713012695313,-0.6030534351145038,0.05343511450381679,0.07633587786259542
0.9415420532226563,0.2221380615234375,-0.43828857421875,-0.06870229007633588,0.0,0.04580152671755725
0.8960366821289063,0.3799099731445313,-0.58198974609375,0.07633587786259542,0.061068702290076333,-0.061068702290076333
0.9289682006835938,-0.00389190673828125,-0.5367837524414063,0.3969465648854962,0.1297709923664122,0.030534351145038167
0.9157955932617188,-0.2775228881835938,-0.6822811889648438,0.5190839694656488,0.061068702290076333,0.04580152671755725
0.8496331787109376,-0.31374755859375003,-0.889749755859375,0.4198473282442748,-0.05343511450381679,-0.007633587786259542
0.9220825195312501,-0.329315185546875,-0.9765692138671875,0.1297709923664122,-0.08396946564885496,-0.10687022900763359
0.9014254760742187,-0.4843927001953125,-0.6412664794921875,0.09923664122137404,-0.015267175572519083,-0.061068702290076333
0.8921447753906251,-0.3814068603515625,-0.6379733276367188,0.1297709923664122,0.015267175572519083,-0.015267175572519083
0.8286767578125,-0.39547760009765626,-0.6481521606445313,0.022900763358778626,-0.007633587786259542,0.015267175572519083
0.47720764160156254,-0.22782623291015627,-0.7550299072265625,-0.05343511450381679,-0.04580152671755725,0.11450381679389313
-0.7978408813476563,1.4331198120117188,-0.24668701171875002,0.26717557251908397,-0.40458015267175573,0.5801526717557252
-2.233355712890625,-0.5355862426757813,0.34637969970703125,0.6106870229007634,-0.015267175572519083,1.7099236641221374
-0.7679031372070313,-2.05253173828125,-0.1035845947265625,-0.09923664122137404,0.11450381679389313,1.580152671755725
0.5074447631835938,-3.6149826049804688,-0.279019775390625,-0.1450381679389313,0.25190839694656486,-2.2442748091603053
-2.85486328125,-4.911885681152344,1.4418017578125,2.297709923664122,-0.46564885496183206,-3.0
-2.9928762817382815,-4.584366760253906,1.4085708618164063,2.9847328244274807,-2.1297709923664123,-1.8549618320610686
-2.151925048828125,-2.199226684570313,-0.4616400146484375,1.0305343511450382,-1.900763358778626,-0.8091603053435115
0.6786886596679688,-0.8379574584960938,-2.2552102661132816,0.03816793893129771,-0.7557251908396946,-0.3129770992366412
1.9276913452148439,-0.207169189453125,-2.261796569824219,0.21374045801526717,0.4961832061068702,-0.030534351145038167
1.5151492309570314,-0.7616162109375001,-0.7966433715820312,-0.8396946564885496,1.7404580152671756,0.4809160305343511
-1.460662536621094,-0.9774673461914063,0.5718109130859376,-2.4580152671755724,1.9389312977099236,1.1450381679389312
-2.7916946411132812,-2.0172052001953125,1.69806884765625,-1.4427480916030533,1.83206106870229,1.8473282442748091
-1.8705102539062501,-2.8243267822265627,0.6583309936523438,-1.1755725190839694,0.5267175572519084,1.7633587786259541
0.9624984741210938,-3.134781188964844,0.6002517700195312,-0.19083969465648853,0.21374045801526717,0.9236641221374046
2.2387445068359377,-2.62254638671875,0.25626708984375,-0.0916030534351145,-0.03816793893129771,-0.4198473282442748
0.33320709228515627,-2.3881338500976566,0.15956817626953126,0.08396946564885496,-0.04580152671755725,-2.229007633587786
-2.904859313964844,-3.2814761352539064,0.374820556640625,2.9770992366412212,-1.4045801526717556,-2.5877862595419847
-3.539539489746094,-2.322570190429688,-0.33260833740234375,1.6412213740458015,-2.0,-1.213740458015267
-0.4032614135742188,-1.2469070434570313,-1.8396743774414064,0.4580152671755725,-1.1526717557251909,-0.5725190839694656
1.2196636962890626,0.29608428955078125,-1.8887722778320313,-0.04580152671755725,0.4351145038167939,-0.06870229007633588
1.141226806640625,-0.22722747802734375,-0.8939410400390625,-0.183206106870229,1.6259541984732824,0.35877862595419846
0.07065307617187501,-0.8217910766601563,-0.202379150390625,-1.3206106870229006,1.9389312977099236,0.7099236641221374
-0.5517526245117188,-2.135159912109375,1.8163229370117189,-1.7633587786259541,1.580152671755725,1.1450381679389312
0.6370751953125,-1.7196240234375,1.1358380126953125,-1.16793893129771,0.8015267175572519,0.8778625954198473
1.0855426025390627,-0.39398071289062503,0.3116519165039063,-1.0763358778625953,0.37404580152671757,0.34351145038167935
1.6723223876953126,-0.7050338745117188,0.307760009765625,-0.6412213740458015,0.13740458015267176,0.05343511450381679
1.6351995849609375,0.621507568359375,0.0916094970703125,-0.08396946564885496,0.061068702290076333,-0.20610687022900762
1.5989749145507812,0.5568420410156251,-0.2436932373046875,0.282442748091603,0.1297709923664122,-0.11450381679389313
1.5920892333984376,0.4331991577148438,-0.27991790771484376,0.04580152671755725,0.061068702290076333,-0.015267175572519083
1.7657281494140626,0.43499542236328126,-0.44188110351562504,-0.09923664122137404,-0.030534351145038167,-0.0916030534351145
1.8190173339843752,0.5565426635742188,-0.3993695068359375,-0.38167938931297707,-0.061068702290076333,-0.2748091603053435
1.8738034057617188,0.5745053100585937,-0.38320312500000003,-0.6870229007633587,-0.1297709923664122,-0.38167938931297707
0.9460327148437501,0.15837066650390627,-0.22662872314453125,-0.015267175572519083,-0.16793893129770993,-0.2595419847328244
1.5331118774414063,0.9160949707031251,-0.5948629760742188,-0.183206106870229,-0.3511450381679389,-0.015267175572519083
1.7061520385742188,0.6771917724609375,-0.5298980712890625,-0.3511450381679389,-0.16793893129770993,0.007633587786259542
1.3846206665039062,0.6170169067382812,-0.3311114501953125,-0.4427480916030534,0.022900763358778626,-0.015267175572519083
1.2963043212890626,0.611927490234375,-0.0700543212890625,-0.08396946564885496,0.015267175572519083,0.007633587786259542
1.2633728027343751,0.5310955810546876,-0.3811074829101563,0.17557251908396945,0.08396946564885496,-0.05343511450381679
1.3127700805664062,0.32811767578125,-0.4667294311523438,0.5419847328244275,0.1450381679389313,0.03816793893129771
1.1430230712890626,0.0628692626953125,-0.44068359375000005,0.26717557251908397,0.07633587786259542,0.19083969465648853
1.2585827636718752,-0.2329156494140625,-0.6466552734375001,0.16793893129770993,0.03816793893129771,0.09923664122137404
1.4340179443359375,0.124541015625,-0.822689208984375,0.022900763358778626,-0.022900763358778626,-0.11450381679389313
1.302890625,0.2915936279296875,-0.726888427734375,-0.007633587786259542,-0.09923664122137404,-0.21374045801526717
1.1337423706054688,0.21615051269531252,-0.6685098266601562,-0.015267175572519083,-0.17557251908396945,-0.16793893129770993
0.8313711547851563,-0.41194335937500004,-0.6259982299804688,0.5114503816793893,-0.09923664122137404,0.022900763358778626
1.3274395751953125,-0.034129028320312504,-0.7023394775390626,-0.022900763358778626,-0.0916030534351145,0.05343511450381679
1.1720626831054688,0.1993853759765625,-0.6957531738281251,-0.549618320610687,-0.04580152671755725,0.04580152671755725
1.0373428344726563,0.03981719970703125,-0.47481262207031255,-0.5267175572519084,0.04580152671755725,0.061068702290076333
1.0594967651367189,-0.14519805908203126,-0.326920166015625,0.022900763358778626,0.10687022900763359,0.09923664122137404
1.0433303833007812,0.07065307617187501,-0.5466632080078125,0.0,0.03816793893129771,-0.030534351145038167
0.9295669555664063,0.012873229980468751,-0.5218148803710938,0.03816793893129771,0.061068702290076333,-0.0916030534351145
1.0621911621093751,-0.16735198974609375,-0.5514532470703125,0.5038167938931297,0.0916030534351145,-0.007633587786259542
1.0196795654296875,-0.24638763427734375,-0.6768923950195312,0.34351145038167935,0.015267175572519083,0.0
1.0747650146484375,-0.4302053833007813,-0.7170089721679688,0.22900763358778625,-0.015267175572519083,-0.030534351145038167
0.91250244140625,-0.5517526245117188,-0.650247802734375,0.183206106870229,-0.007633587786259542,-0.04580152671755725
0.9981243896484375,-0.4796026611328125,-0.6152206420898437,0.10687022900763359,0.007633587786259542,-0.030534351145038167
1.0319540405273437,-0.5433700561523438,-0.5763015747070312,0.1297709923664122,-0.03816793893129771,0.0
0.9801617431640626,-0.5709127807617188,-0.6050418090820313,-0.07633587786259542,-0.05343511450381679,-0.007633587786259542
0.9642947387695313,-0.6170169067382812,-0.5248086547851563,-0.022900763358778626,-0.022900763358778626,-0.007633587786259542
0.959205322265625,-0.587977294921875,-0.5550457763671875,0.015267175572519083,0.007633587786259542,-0.007633587786259542
0.9454339599609376,-0.5185217285156251,-0.5358856201171875,-0.061068702290076333,0.007633587786259542,-0.007633587786259542
0.9116043090820313,-0.5242098999023438,-0.5295986938476562,-0.06870229007633588,-0.015267175572519083,0.0
0.8864566040039062,-0.4781057739257813,-0.6499484252929688,-0.04580152671755725,-0.022900763358778626,0.007633587786259542
0.46523254394531255,0.29877868652343753,-0.6876699829101562,0.04580152671755725,-0.0916030534351145,0.17557251908396945
-2.0085232543945315,0.34129028320312504,0.12424163818359375,0.10687022900763359,-0.42748091603053434,1.465648854961832
-1.7741107177734377,-0.9205856323242188,-0.10208770751953125,0.05343511450381679,-0.3511450381679389,1.5114503816793892
-0.19669097900390625,-1.1169772338867188,-0.42152343750000004,-0.3053435114503817,-0.37404580152671757,0.9618320610687022
1.2436138916015627,-1.4627581787109376,-0.6364764404296875,0.015267175572519083,-0.061068702290076333,-0.007633587786259542
0.699345703125,-3.00814453125,-0.6026467895507813,0.45038167938931295,0.5343511450381679,-1.4809160305343512
-2.3004162597656252,-5.307063903808594,0.48259643554687504,1.2519083969465647,0.1450381679389313,-3.297709923664122
-3.068918151855469,-3.9101687622070314,1.3696517944335938,2.3435114503816794,-2.541984732824427,-1.5877862595419847
-0.6565347290039063,-0.26105712890625,-3.2611184692382813,-0.5190839694656488,-1.114503816793893,-0.35877862595419846
1.6441809082031251,-0.3224295043945313,-2.6902056884765626,0.5725190839694656,0.5572519083969465,0.1984732824427481
0.15837066650390627,-1.0672805786132813,-0.12364288330078126,-1.0916030534351144,1.9923664122137403,0.6259541984732824
-2.6755361938476563,-1.7884808349609376,1.482217712402344,-1.7862595419847327,1.2748091603053435,1.8931297709923662
-1.8732046508789064,-1.9004479980468751,0.3906875610351563,-1.1755725190839694,0.40458015267175573,1.7709923664122136
0.7418572998046875,-2.181563415527344,0.055384826660156254,-0.25190839694656486,0.007633587786259542,1.0305343511450382
1.7696200561523439,-1.8878741455078125,0.06346801757812501,-0.22900763358778625,-0.10687022900763359,0.061068702290076333
1.8384768676757814,-2.02379150390625,-0.28919860839843753,0.12213740458015267,0.08396946564885496,-0.9770992366412213
0.5170248413085938,-2.8563601684570314,0.21615051269531252,0.4427480916030534,-0.022900763358778626,-2.0839694656488548
-2.6566754150390626,-2.5309368896484377,0.5478607177734375,1.6106870229007633,-0.6106870229007634,-2.687022900763359
-3.146756286621094,-2.3569985961914064,-0.17812957763671877,2.3587786259541983,-1.8549618320610686,-1.8473282442748091
-1.8914666748046876,-1.0553054809570312,-1.21427490234375,1.2671755725190839,-1.549618320610687,-0.9541984732824427
0.7825726318359375,-0.5622308349609375,-2.5953030395507812,-0.32061068702290074,-0.5038167938931297,-0.48854961832061067
1.1870315551757813,-0.23141876220703125,-0.310155029296875,-1.0,1.6030534351145038,0.5114503816793893
-0.20686981201171875,-1.3250445556640627,0.13202545166015625,-0.9847328244274809,1.5038167938931297,1.2519083969465647
-0.8577163696289063,-1.1457174682617188,0.9705816650390625,-2.015267175572519,1.282442748091603,1.3740458015267174
-0.17663269042968752,-0.5888754272460938,-0.9098080444335938,-2.32824427480916,-0.29770992366412213,0.9694656488549618
1.7480648803710939,-0.781973876953125,-0.44457550048828126,0.45038167938931295,0.25190839694656486,0.32061068702290074
1.5546670532226563,0.43080413818359375,0.02784210205078125,-0.3129770992366412,0.19083969465648853,-0.25190839694656486
1.52083740234375,0.33679962158203125,0.19848724365234377,0.3129770992366412,0.35877862595419846,-0.17557251908396945
1.5813116455078127,0.686173095703125,-0.22153930664062502,0.19083969465648853,0.20610687022900762,-0.2748091603053435
1.5798147583007813,0.6831793212890626,-0.38889129638671877,-0.5190839694656488,0.15267175572519084,-0.4961832061068702
1.5049703979492188,0.7882608032226562,0.0017962646484375,-0.32061068702290074,0.2595419847328244,-0.6412213740458015
1.274150390625,2.466570739746094,0.7262896728515625,1.2595419847328244,-0.05343511450381679,0.282442748091603
1.0400372314453126,-0.12424163818359375,-0.6783892822265626,0.25190839694656486,-0.25190839694656486,-0.015267175572519083
1.670226745605469,0.4367916870117188,-0.5763015747070312,-0.29770992366412213,-0.2900763358778626,-0.1450381679389313
1.3301339721679688,0.3209326171875,-0.2233355712890625,-0.25190839694656486,0.061068702290076333,-0.12213740458015267
1.2711566162109376,0.3945794677734375,0.09131011962890626,0.07633587786259542,-0.022900763358778626,-0.030534351145038167
1.2795391845703126,0.18591339111328126,-0.5697152709960938,0.7633587786259541,0.09923664122137404,0.08396946564885496
1.2451107788085938,0.154478759765625,-0.48139892578125004,0.2748091603053435,0.12213740458015267,-0.061068702290076333
1.2708572387695314,-0.087418212890625,-0.51971923828125,0.20610687022900762,0.11450381679389313,0.061068702290076333
1.1002120971679688,-0.35685791015625,-0.36553985595703126,-0.04580152671755725,0.06870229007633588,0.13740458015267176
1.354084167480469,-0.15477813720703126,-0.6295907592773438,-0.06870229007633588,0.030534351145038167,0.030534351145038167
1.2319381713867188,0.11406280517578125,-0.6385720825195312,0.1297709923664122,0.022900763358778626,-0.1297709923664122
1.1301498413085938,-0.11825408935546876,-0.6125262451171876,0.030534351145038167,-0.1297709923664122,-0.12213740458015267
0.805924072265625,-0.6382727050781251,-0.645457763671875,0.564885496183206,-0.11450381679389313,-0.015267175572519083
1.2951068115234377,-0.20118164062500002,-0.57240966796875,-0.5725190839694656,-0.09923664122137404,0.007633587786259542
1.1774514770507813,0.085023193359375,-0.530496826171875,-0.5038167938931297,0.04580152671755725,0.03816793893129771
1.0445278930664064,-0.08592132568359376,-0.38619689941406254,-0.04580152671755725,0.07633587786259542,0.09923664122137404
1.031055908203125,0.07753875732421875,-0.49097900390625004,0.22900763358778625,0.06870229007633588,0.007633587786259542
1.0322534179687501,0.0580792236328125,-0.604742431640625,0.17557251908396945,0.05343511450381679,-0.030534351145038167
1.1217672729492187,-0.3107537841796875,-0.5595364379882812,0.35877862595419846,0.04580152671755725,0.05343511450381679
1.0065069580078125,-0.5218148803710938,-0.7083270263671876,0.3129770992366412,-0.007633587786259542,0.0
1.0133926391601562,-0.4939727783203125,-0.7319778442382813,0.1984732824427481,-0.05343511450381679,-0.04580152671755725
0.9499246215820313,-0.48978149414062505,-0.6715036010742188,0.06870229007633588,-0.0916030534351145,-0.07633587786259542
0.9259744262695313,-0.5379812622070312,-0.6035449218750001,0.10687022900763359,-0.07633587786259542,-0.06870229007633588
0.9804611206054688,-0.5987548828125,-0.5727090454101563,0.1450381679389313,-0.061068702290076333,-0.06870229007633588
0.9780661010742188,-0.6248007202148438,-0.5032534790039063,0.05343511450381679,-0.03816793893129771,-0.04580152671755725
0.9436376953125001,-0.5643264770507813,-0.4805007934570313,0.030534351145038167,0.0,0.007633587786259542
0.9412426757812501,-0.6520440673828125,-0.4631369018554688,0.007633587786259542,-0.007633587786259542,0.007633587786259542
0.9427395629882813,-0.6984475708007812,-0.45744873046875,0.007633587786259542,-0.007633587786259542,0.0
-0.9849517822265625,1.1493099975585939,-0.28500732421875,0.7938931297709924,-0.22900763358778625,0.35877862595419846
-1.9417620849609376,-1.1936178588867188,0.6667135620117188,0.26717557251908397,0.2213740458015267,1.6030534351145038
-0.6721023559570313,-2.0836669921875,0.20387603759765627,-0.17557251908396945,0.21374045801526717,1.549618320610687
2.0336709594726563,-3.1677127075195313,-0.0975970458984375,-0.12213740458015267,0.15267175572519084,-0.4580152671755725
0.475411376953125,-3.686533813476563,0.08083190917968751,0.4198473282442748,0.25190839694656486,-2.0076335877862594
-2.85725830078125,-4.473597106933594,1.53041748046875,1.7938931297709924,-0.7480916030534351,-2.8167938931297707
-3.0126351928710937,-3.030597839355469,-0.056282958984375006,1.6717557251908397,-2.3893129770992365,-1.0610687022900762
-0.19070343017578126,-1.09931396484375,-2.0348684692382815,0.15267175572519084,-1.3969465648854962,-0.6412213740458015
1.9824774169921875,0.07065307617187501,-1.6145425415039063,0.4351145038167939,0.7786259541984732,-0.015267175572519083
0.06197113037109375,-0.8837622070312501,0.55564453125,-1.564885496183206,1.816793893129771,0.8702290076335878
-2.824626159667969,-1.9959494018554689,1.4465917968750002,-1.580152671755725,1.3893129770992365,1.7633587786259541
-0.4727169799804688,-2.4459136962890624,1.0705737304687502,-0.7099236641221374,0.7404580152671756,1.0763358778625953
1.8100360107421876,-2.7656488037109375,0.8903485107421876,-0.3893129770992366,0.32061068702290074,0.26717557251908397
2.3105950927734376,-2.442919921875,0.645457763671875,-0.03816793893129771,-0.09923664122137404,-0.7862595419847328
-1.7163308715820313,-2.21539306640625,1.3298345947265626,0.6106870229007634,-0.9618320610687022,-2.2213740458015265
-3.4356555175781254,-1.9983444213867188,0.16106506347656252,2.183206106870229,-1.9236641221374045,-1.2900763358778626
-1.1535012817382813,-0.44786865234375,-1.0750643920898437,0.3053435114503817,-1.549618320610687,-0.6259541984732824
0.6532415771484376,-0.547261962890625,-2.4333398437500002,0.03816793893129771,-0.47328244274809156,-0.3511450381679389
1.281036071777344,-0.427510986328125,-0.6289920043945313,-0.47328244274809156,1.5190839694656488,0.282442748091603
-0.97716796875,-2.0645068359375003,1.3867163085937502,-1.213740458015267,1.3740458015267174,1.366412213740458
0.24339385986328127,0.055384826660156254,-0.22004241943359376,-2.5267175572519083,0.2748091603053435,1.045801526717557
1.5959811401367188,-0.8137078857421876,0.09011260986328125,0.4961832061068702,0.3129770992366412,0.2213740458015267
1.7271084594726562,-0.17214202880859375,0.1359173583984375,-0.1984732824427481,0.015267175572519083,-0.11450381679389313
1.548380126953125,0.7711962890625,-0.0197589111328125,-0.19083969465648853,-0.061068702290076333,-0.3053435114503817
1.430724792480469,0.6661148071289062,-0.29309051513671874,0.21374045801526717,-0.007633587786259542,-0.1450381679389313
1.4388079833984375,0.7457492065429688,-0.4290078735351563,-0.06870229007633588,-0.030534351145038167,-0.1297709923664122
1.3067825317382813,0.7747888183593751,-0.42691223144531254,-0.19083969465648853,0.015267175572519083,-0.030534351145038167
1.32923583984375,0.4739144897460938,-0.3415896606445313,0.3282442748091603,0.007633587786259542,0.09923664122137404
1.281036071777344,0.46223876953125004,-0.7035369873046875,0.09923664122137404,-0.03816793893129771,0.11450381679389313
1.4759307861328126,0.16106506347656252,-0.7972421264648438,-0.12213740458015267,-0.030534351145038167,0.07633587786259542
1.6007711791992187,0.5897735595703125,-0.8568182373046875,-0.7175572519083969,0.030534351145038167,-0.24427480916030533
0.9442364501953125,0.4727169799804688,-0.33799713134765624,-0.13740458015267176,0.11450381679389313,-0.32061068702290074
1.0624905395507813,0.81191162109375,-0.6388714599609375,0.17557251908396945,-0.17557251908396945,-0.06870229007633588
1.4756314086914064,0.6747967529296875,-0.5774990844726563,-0.5038167938931297,-0.25190839694656486,0.015267175572519083
1.36276611328125,0.37661682128906254,-0.31644195556640625,0.007633587786259542,0.022900763358778626,0.07633587786259542
1.152902526855469,0.40954833984375,-0.37272491455078127,0.26717557251908397,0.0916030534351145,0.10687022900763359
1.0777587890625,0.48409332275390626,-0.6759942626953125,0.20610687022900762,0.11450381679389313,-0.015267175572519083
1.1050021362304687,0.56282958984375,-0.6864724731445313,0.1297709923664122,0.11450381679389313,-0.1297709923664122
1.1993060302734375,0.27063720703125,-0.4903802490234375,0.13740458015267176,0.015267175572519083,0.09923664122137404
1.0163864135742189,-0.28770172119140625,-0.5837860107421875,0.282442748091603,0.05343511450381679,0.16793893129770993
1.1499087524414062,-0.06556365966796876,-0.8511300659179688,0.23664122137404578,0.04580152671755725,0.04580152671755725
1.2196636962890626,0.154478759765625,-0.9972262573242188,0.061068702290076333,-0.03816793893129771,-0.1450381679389313
0.8601113891601563,0.028740234375,-0.8026309204101563,-0.06870229007633588,-0.13740458015267176,-0.061068702290076333
0.8211923217773438,-0.31943572998046876,-0.8361611938476563,0.21374045801526717,-0.06870229007633588,0.05343511450381679
1.1418255615234376,-0.19190093994140625,-0.7493417358398438,-0.022900763358778626,-0.030534351145038167,0.03816793893129771
1.3663586425781251,0.144898681640625,-0.7694000244140625,-0.3969465648854962,0.007633587786259542,-0.061068702290076333
0.8900491333007813,0.10927276611328125,-0.5146298217773437,-0.11450381679389313,0.022900763358778626,0.061068702290076333
0.9981243896484375,0.013471984863281251,-0.6325845336914063,0.0,-0.061068702290076333,0.015267175572519083
0.890947265625,-0.0473016357421875,-0.7229965209960938,0.04580152671755725,0.0,-0.08396946564885496
1.047821044921875,-0.11226654052734375,-0.6727011108398437,0.11450381679389313,0.08396946564885496,-0.04580152671755725
0.9151968383789063,-0.5310955810546876,-0.47601013183593754,0.29770992366412213,0.11450381679389313,0.06870229007633588
0.9029223632812501,-0.506546630859375,-0.7855664062500001,0.35877862595419846,-0.015267175572519083,0.015267175572519083
0.9322613525390625,-0.5161267089843751,-0.7032376098632813,0.07633587786259542,-0.08396946564885496,-0.06870229007633588
0.9145980834960938,-0.5810916137695313,-0.6265969848632813,0.03816793893129771,-0.07633587786259542,-0.061068702290076333
0.8604107666015626,-0.6056405639648438,-0.6571334838867188,0.13740458015267176,-0.07633587786259542,-0.08396946564885496
0.890947265625,-0.49247589111328127,-0.6038442993164063,0.13740458015267176,-0.06870229007633588,-0.06870229007633588
0.9268725585937501,-0.7071295166015625,-0.46912445068359376,0.08396946564885496,-0.030534351145038167,0.007633587786259542
0.86939208984375,-0.6894662475585938,-0.5289999389648438,-0.03816793893129771,0.007633587786259542,0.022900763358778626
0.5158273315429688,-0.4110452270507813,-0.42421783447265626,0.4580152671755725,-0.030534351145038167,0.030534351145038167
-1.0400372314453126,1.407073974609375,-0.23261627197265627,0.8396946564885496,-0.1297709923664122,0.3893129770992366
-1.6941769409179688,-0.9406439208984375,0.8080197143554688,0.16030534351145037,0.282442748091603,1.3206106870229006
-0.683778076171875,-1.763632507324219,0.34218841552734375,-0.20610687022900762,0.6183206106870229,1.8473282442748091
0.37122802734375004,-2.125579833984375,0.0772393798828125,-0.33587786259541985,0.09923664122137404,0.8473282442748091
2.07169189453125,-3.3422497558593753,-0.18202148437500001,-0.08396946564885496,0.1984732824427481,-0.5801526717557252
-0.38859191894531253,-3.9517822265625,0.35595977783203125,-0.015267175572519083,-0.26717557251908397,-2.709923664122137
-3.05843994140625,-4.220922546386719,2.24892333984375,2.1908396946564883,-0.8625954198473282,-2.8854961832061066
-2.9554541015625,-1.991159362792969,-0.1646575927734375,0.8702290076335878,-2.2519083969465647,-0.7251908396946565
0.017064514160156252,-0.5376818847656251,-1.8914666748046876,-0.42748091603053434,-1.3435114503816794,-0.35877862595419846
1.4208453369140626,-0.03861968994140625,-2.1668939208984375,0.45038167938931295,0.16793893129770993,0.09923664122137404
1.0541079711914063,-1.5148498535156252,-0.32901580810546877,-0.648854961832061,2.1221374045801524,0.7557251908396946
-2.611469421386719,-1.9770886230468752,1.3486953735351563,-0.8625954198473282,2.030534351145038,1.9312977099236641
-2.0719912719726565,-1.5777191162109376,0.29219238281250004,-0.7404580152671756,0.7480916030534351,1.6106870229007633
0.1197509765625,-2.2378463745117188,0.28111541748046875,-0.34351145038167935,0.3969465648854962,0.9465648854961831
1.6881893920898439,-2.26808349609375,0.6855743408203125,0.09923664122137404,0.08396946564885496,0.03816793893129771
1.6100518798828125,-2.5629702758789064,0.6256988525390625,0.3129770992366412,-0.38167938931297707,-0.9312977099236641
-0.6553372192382813,-2.2677841186523438,0.6283932495117188,0.5343511450381679,-1.114503816793893,-2.091603053435114
-2.9596453857421876,-1.9121237182617188,0.15567626953125,2.0839694656488548,-2.0763358778625953,-1.8702290076335877
-0.7182064819335938,-0.46104125976562504,-1.2765454101562501,0.2595419847328244,-1.5419847328244274,-0.8473282442748091
1.4480886840820313,0.12543914794921876,-1.2151730346679688,0.08396946564885496,0.7938931297709924,0.20610687022900762
0.9936337280273438,-0.6750961303710938,-0.47840515136718753,-0.6717557251908397,1.6106870229007633,0.7099236641221374
-0.2329156494140625,-1.6160394287109376,0.75443115234375,-1.4961832061068703,1.381679389312977,1.2366412213740459
-0.5164260864257812,0.7726931762695313,0.02544708251953125,-2.610687022900763,0.5801526717557252,1.549618320610687
-0.6245013427734375,-0.5122348022460937,-1.5543676757812501,-2.229007633587786,-0.34351145038167935,0.9770992366412213
1.1993060302734375,-0.884959716796875,-0.6445596313476563,0.26717557251908397,-0.1297709923664122,0.5725190839694656
1.72201904296875,0.20327728271484377,-0.27303222656250004,-0.12213740458015267,0.24427480916030533,-0.04580152671755725
1.9226019287109375,-0.01107696533203125,-0.3212319946289063,0.16030534351145037,0.41221374045801523,-0.3282442748091603
1.3672567749023439,1.0056088256835938,-0.1407073974609375,0.12213740458015267,0.3893129770992366,-0.7633587786259541
0.17064514160156252,2.7812164306640628,1.1945159912109375,0.16030534351145037,0.19083969465648853,0.13740458015267176
0.6415658569335938,0.016465759277343752,-0.5221142578125,-0.5419847328244275,-0.282442748091603,0.061068702290076333
1.4073733520507814,0.135318603515625,-0.6481521606445313,0.25190839694656486,-0.25190839694656486,-0.13740458015267176
1.9016455078125,0.4290078735351563,-0.286204833984375,-0.015267175572519083,-0.13740458015267176,-0.08396946564885496
1.2915142822265626,0.18651214599609375,-0.18920654296875,0.007633587786259542,0.10687022900763359,-0.030534351145038167
1.2612771606445312,0.35775604248046877,0.01945953369140625,0.2748091603053435,-0.05343511450381679,0.03816793893129771
1.2292437744140625,0.09669891357421875,-0.35176849365234375,0.3053435114503817,-0.05343511450381679,-0.03816793893129771
1.3669573974609375,0.0532891845703125,-0.5478607177734375,0.282442748091603,0.05343511450381679,-0.11450381679389313
1.3298345947265626,-0.14669494628906252,-0.3936813354492188,0.23664122137404578,0.12213740458015267,0.05343511450381679
1.1816427612304687,-0.42421783447265626,-0.22273681640625,-0.282442748091603,0.07633587786259542,0.13740458015267176
1.2534933471679688,-0.2682421875,-0.520916748046875,0.007633587786259542,0.06870229007633588,0.0916030534351145
1.3364208984375001,0.04460723876953125,-0.5891748046875,0.1297709923664122,-0.007633587786259542,-0.1450381679389313
1.234333190917969,-0.11765533447265626,-0.41763153076171877,0.08396946564885496,-0.08396946564885496,-0.05343511450381679
0.8858578491210938,-0.43918670654296876,-0.6005511474609375,0.183206106870229,-0.05343511450381679,0.007633587786259542
1.3037887573242188,-0.16525634765625,-0.58198974609375,-0.19083969465648853,-0.08396946564885496,0.007633587786259542
1.4917977905273438,-0.05837860107421875,-0.5960604858398438,-0.5190839694656488,-0.061068702290076333,-0.061068702290076333
1.1564950561523437,-0.19100280761718752,-0.3541635131835938,-0.16030534351145037,0.030534351145038167,0.05343511450381679
1.13284423828125,-0.08652008056640625,-0.3826043701171875,-0.0916030534351145,-0.022900763358778626,0.007633587786259542
1.0588980102539063,-0.1407073974609375,-0.48798522949218753,0.10687022900763359,-0.030534351145038167,-0.05343511450381679
1.0777587890625,-0.16735198974609375,-0.46373565673828127,0.16030534351145037,-0.007633587786259542,-0.07633587786259542
1.1112890625,-0.34727783203125,-0.44188110351562504,0.34351145038167935,0.030534351145038167,-0.007633587786259542
1.081351318359375,-0.5310955810546876,-0.46373565673828127,0.32061068702290074,0.015267175572519083,-0.007633587786259542
0.9056167602539062,-0.7235952758789063,-0.49576904296875,0.35877862595419846,-0.030534351145038167,-0.022900763358778626
0.8903485107421876,-0.585582275390625,-0.52929931640625,0.0916030534351145,-0.08396946564885496,-0.08396946564885496
0.9277706909179688,-0.5595364379882812,-0.5095404052734376,-0.0916030534351145,-0.07633587786259542,-0.10687022900763359
1.0367440795898437,-0.5972579956054688,-0.379610595703125,0.1984732824427481,-0.03816793893129771,-0.05343511450381679
0.9978250122070313,-0.5894741821289062,-0.4053570556640625,0.022900763358778626,-0.015267175572519083,-0.015267175572519083
0.9876461791992188,-0.6942562866210937,-0.4044589233398438,-0.007633587786259542,0.015267175572519083,0.0
0.9601034545898438,-0.6924600219726563,-0.3415896606445313,-0.022900763358778626,-0.007633587786259542,0.0
0.9355545043945312,-0.7119195556640625,-0.3607498168945313,-0.007633587786259542,-0.022900763358778626,-0.015267175572519083
0.384400634765625,-0.6768923950195312,-0.2775228881835938,0.3129770992366412,-0.09923664122137404,0.022900763358778626
-1.4331198120117188,0.4014651489257813,0.24040008544921876,0.5954198473282443,0.08396946564885496,0.7175572519083969
-1.0855426025390627,-1.708846435546875,0.276624755859375,-0.3511450381679389,0.2748091603053435,1.8625954198473282
0.7502398681640625,-1.7492623901367188,-0.011675720214843751,-0.2748091603053435,0.007633587786259542,0.7786259541984732
0.6523434448242188,-4.17930908203125,-0.46253814697265627,0.06870229007633588,0.1984732824427481,-2.091603053435114
-2.934797058105469,-5.773194580078125,2.05732177734375,2.8702290076335877,-1.381679389312977,-3.091603053435114
-3.3718881225585937,-3.592529296875,0.23201751708984375,1.6030534351145038,-2.3893129770992365,-1.2671755725190839
-0.8589138793945313,-0.7789801025390626,-2.5174649047851565,0.05343511450381679,-1.4351145038167938,-0.549618320610687
1.5762222290039063,-0.16316070556640624,-2.36867431640625,0.22900763358778625,0.8167938931297709,0.42748091603053434
1.2187655639648438,-1.1050021362304687,-0.33799713134765624,-0.6183206106870229,2.0,0.7557251908396946
-1.8399737548828126,-1.0256671142578127,0.6382727050781251,-1.916030534351145,2.297709923664122,1.1755725190839694
-2.855761413574219,-1.9812799072265626,1.5872991943359376,-1.2290076335877862,1.9923664122137403,1.748091603053435
-1.3235476684570313,-2.4950115966796877,0.8646020507812501,-0.9389312977099237,0.7862595419847328,1.4274809160305344
1.384021911621094,-3.1793884277343754,0.8445437622070313,-0.32061068702290074,0.24427480916030533,0.5725190839694656
1.9893630981445314,-2.844983825683594,0.6268963623046875,0.183206106870229,-0.3129770992366412,-1.282442748091603
-2.5869204711914064,-2.7866052246093753,0.8592132568359375,1.7099236641221374,-1.3282442748091603,-2.610687022900763
-3.669169921875,-2.138453063964844,-0.5873785400390625,1.0229007633587786,-2.16793893129771,-1.4198473282442747
-1.028660888671875,-0.6592291259765626,-2.162403259277344,0.21374045801526717,-1.1832061068702289,-0.7786259541984732
0.9376501464843751,0.9355545043945312,-2.39262451171875,-0.13740458015267176,0.0916030534351145,-0.2900763358778626
1.3816268920898438,0.1071771240234375,-1.3912069702148437,-0.24427480916030533,1.3511450381679388,0.46564885496183206
-0.350870361328125,-1.0915301513671876,1.2376263427734375,-1.3969465648854962,1.3435114503816794,1.083969465648855
1.01788330078125,-1.5528707885742188,1.5417938232421875,-0.9923664122137404,0.9007633587786259,0.8244274809160305
1.2600796508789063,-0.21165985107421875,0.15657440185546875,-1.4809160305343512,0.4427480916030534,0.549618320610687
1.2253518676757813,-0.4808001708984375,-0.1335223388671875,-0.24427480916030533,0.2900763358778626,0.04580152671755725
1.5717315673828125,0.530496826171875,-0.27333160400390627,-0.29770992366412213,0.030534351145038167,-0.04580152671755725
1.6777111816406252,0.4086502075195313,-0.3074606323242188,0.16793893129770993,0.022900763358778626,0.022900763358778626
1.6546591186523438,0.45146118164062504,-0.47032196044921876,-0.32061068702290074,-0.061068702290076333,-0.16030534351145037
1.696871337890625,0.6780899047851563,-0.4972659301757813,-0.549618320610687,-0.10687022900763359,-0.3511450381679389
1.2008029174804689,0.46223876953125004,-0.30446685791015626,-0.10687022900763359,-0.1297709923664122,-0.33587786259541985
1.4450949096679688,1.0541079711914063,-0.5547463989257813,-0.1297709923664122,-0.24427480916030533,-0.022900763358778626
1.6414865112304688,0.6445596313476563,-0.48259643554687504,0.061068702290076333,-0.15267175572519084,0.07633587786259542
1.3115725708007813,0.6589297485351563,-0.46643005371093754,-0.22900763358778625,0.007633587786259542,0.022900763358778626
1.2939093017578125,0.5128335571289063,-0.3263214111328125,0.015267175572519083,0.0916030534351145,0.007633587786259542
1.3022918701171875,0.652642822265625,-0.39817199707031253,0.09923664122137404,0.11450381679389313,-0.04580152671755725
1.2085867309570313,0.83107177734375,-0.24698638916015625,-0.21374045801526717,-0.05343511450381679,-0.13740458015267176
1.24780517578125,0.5155279541015625,-0.53887939453125,0.13740458015267176,0.04580152671755725,0.015267175572519083
1.2196636962890626,-0.15627502441406252,-0.37661682128906254,0.5038167938931297,0.17557251908396945,0.24427480916030533
1.2954061889648438,0.11017089843750001,-0.5792953491210938,0.09923664122137404,0.09923664122137404,0.10687022900763359
1.2906161499023439,0.36973114013671876,-0.9909393310546876,-0.061068702290076333,-0.015267175572519083,-0.06870229007633588
1.324146423339844,0.48259643554687504,-0.8484356689453125,0.07633587786259542,-0.05343511450381679,-0.16793893129770993
1.1957135009765625,0.47601013183593754,-0.6999444580078126,-0.1450381679389313,-0.09923664122137404,-0.0916030534351145
1.0103988647460938,-0.0056881713867187505,-0.7705975341796876,0.10687022900763359,-0.061068702290076333,0.05343511450381679
1.4531781005859377,0.3305126953125,-0.8768765258789063,-0.4198473282442748,-0.13740458015267176,-0.030534351145038167
1.0786569213867188,0.2544708251953125,-0.48948211669921876,-0.06870229007633588,0.03816793893129771,-0.015267175572519083
1.0582992553710937,0.5954617309570313,-0.42541534423828126,-0.06870229007633588,-0.07633587786259542,0.0
1.00351318359375,0.3897894287109375,-0.6433621215820313,0.03816793893129771,-0.007633587786259542,0.0
1.0074050903320313,0.27542724609375,-0.6295907592773438,0.183206106870229,0.11450381679389313,0.015267175572519083
1.0747650146484375,0.07065307617187501,-0.5954617309570313,0.3129770992366412,0.04580152671755725,0.030534351145038167
1.0098001098632814,-0.094603271484375,-0.7322772216796876,0.183206106870229,-0.015267175572519083,0.015267175572519083
1.0457254028320313,-0.19160156250000002,-0.7777825927734375,0.34351145038167935,-0.022900763358778626,0.015267175572519083
0.9358538818359375,-0.3092568969726563,-0.7553292846679688,0.12213740458015267,-0.06870229007633588,-0.03816793893129771
0.9520202636718751,-0.25626708984375,-0.7035369873046875,0.06870229007633588,-0.03816793893129771,-0.030534351145038167
0.8813671875000001,-0.34248779296875004,-0.6894662475585938,0.0916030534351145,-0.05343511450381679,-0.030534351145038167
0.8861572265625001,-0.370030517578125,-0.6774911499023438,-0.05343511450381679,-0.05343511450381679,-0.03816793893129771
0.9071136474609376,-0.41074584960937505,-0.6307882690429688,0.015267175572519083,-0.022900763358778626,-0.030534351145038167
0.8861572265625001,-0.4305047607421875,-0.6236032104492187,0.05343511450381679,0.007633587786259542,-0.015267175572519083
0.8529263305664063,-0.4355941772460938,-0.6367758178710938,-0.007633587786259542,0.007633587786259542,-0.015267175572519083
0.858614501953125,-0.44756927490234377,-0.6209088134765626,-0.015267175572519083,0.015267175572519083,-0.015267175572519083
0.8388555908203126,-0.4272116088867188,-0.6337820434570313,-0.030534351145038167,0.0,-0.022900763358778626
0.8493338012695313,-0.43080413818359375,-0.6532415771484376,-0.015267175572519083,-0.015267175572519083,-0.015267175572519083
0.8828640747070313,-0.31943572998046876,-0.6990463256835938,-0.04580152671755725,0.0,0.007633587786259542
0.1742376708984375,0.13142669677734375,-0.756826171875,0.9007633587786259,-0.05343511450381679,0.19083969465648853
-1.2235556030273438,0.0335302734375,0.016465759277343752,-0.16030534351145037,0.15267175572519084,1.3587786259541985
-1.3528866577148437,-0.7358697509765625,-0.3359014892578125,-0.32061068702290074,0.3282442748091603,1.7938931297709924
-0.5269042968750001,-0.6149212646484375,-0.4843927001953125,-0.6564885496183206,-0.07633587786259542,1.3969465648854962
0.5439688110351563,-0.6451583862304687,-0.6759942626953125,-0.07633587786259542,-0.022900763358778626,0.732824427480916
0.6613247680664063,-0.6373745727539063,-0.7143145751953125,0.16793893129770993,0.19083969465648853,-0.6793893129770993
-0.3541635131835938,-2.3261627197265624,-0.21315673828125,0.8015267175572519,0.1297709923664122,-1.648854961832061
-3.0506561279296878,-3.1958541870117188,0.4245172119140625,1.5038167938931297,-0.8778625954198473,-3.068702290076336
-3.1401699829101566,-2.4662713623046875,-1.2304412841796875,2.4122137404580153,-2.312977099236641,-1.8091603053435115
-0.67060546875,-0.16645385742187502,-3.758983154296875,-0.10687022900763359,-0.8778625954198473,-1.1908396946564885
-1.6863931274414063,-1.57831787109375,1.0295590209960939,-1.5572519083969465,1.8931297709923662,1.66412213740458
-2.750380554199219,-2.175875244140625,0.5942642211914063,-0.549618320610687,1.3740458015267174,1.8473282442748091
-1.4271322631835939,-1.8187179565429688,0.8487350463867188,-0.5725190839694656,0.9083969465648855,1.213740458015267
1.8776953125,-2.7476861572265627,0.7256909179687501,-0.183206106870229,0.08396946564885496,-0.07633587786259542
1.8052459716796876,-2.4234603881835937,0.4547543334960938,-0.06870229007633588,-0.34351145038167935,-1.129770992366412
-1.9025436401367188,-1.9989431762695313,0.5697152709960938,0.83206106870229,-0.7862595419847328,-2.404580152671756
-2.885699157714844,-1.9025436401367188,0.06586303710937501,2.213740458015267,-1.549618320610687,-2.1908396946564883
-1.941163330078125,-0.6819818115234375,-1.1810440063476564,1.5419847328244274,-1.6412213740458015,-1.0229007633587786
0.7173083496093751,0.0622705078125,-1.7729132080078125,-0.1450381679389313,-0.7480916030534351,-0.47328244274809156
1.4870077514648439,-0.21136047363281252,-1.593586120605469,0.13740458015267176,0.5725190839694656,0.3282442748091603
1.6268170166015625,-0.631087646484375,-0.49187713623046875,-0.8015267175572519,1.5954198473282442,0.6564885496183206
0.5568420410156251,-1.1585906982421876,0.6762936401367188,-0.9312977099236641,1.3893129770992365,1.0687022900763359
-0.0520916748046875,-0.29847930908203124,0.5143304443359376,-1.3969465648854962,1.1908396946564885,1.0916030534351144
0.20207977294921875,-1.5543676757812501,-0.4550537109375,-0.7480916030534351,0.19083969465648853,0.9770992366412213
1.6651373291015625,-0.9714797973632813,-0.2077679443359375,-0.23664122137404578,0.16793893129770993,0.09923664122137404
1.597178649902344,-0.02544708251953125,-0.18471588134765626,0.10687022900763359,0.13740458015267176,-0.5038167938931297
1.3516891479492188,0.4793032836914063,-0.3511697387695313,0.38167938931297707,0.0916030534351145,-0.564885496183206
1.3061837768554687,0.9295669555664063,-0.39667510986328125,-0.24427480916030533,0.09923664122137404,-0.5038167938931297
1.4462924194335938,0.74006103515625,-0.28530670166015626,-0.061068702290076333,0.16030534351145037,-0.2900763358778626
1.3268408203125002,1.349294128417969,-0.05957611083984375,-0.11450381679389313,-0.007633587786259542,0.11450381679389313
1.7744100952148438,-0.023950195312500002,-0.585582275390625,0.3969465648854962,-0.03816793893129771,-0.007633587786259542
1.7803976440429687,0.2436932373046875,-0.5861810302734375,-0.19083969465648853,-0.06870229007633588,-0.23664122137404578
0.9406439208984375,0.34907409667968753,-0.540076904296875,0.03816793893129771,-0.20610687022900762,-0.015267175572519083
1.5567626953125,0.21674926757812502,-0.5933660888671876,0.1297709923664122,-0.24427480916030533,0.03816793893129771
1.6244219970703127,0.3308120727539063,-0.5565426635742188,-0.5801526717557252,-0.17557251908396945,-0.030534351145038167
1.3169613647460938,0.14130615234375002,-0.27872039794921877,-0.08396946564885496,0.06870229007633588,0.03816793893129771
1.2528945922851562,0.27393035888671874,-0.25896148681640624,-0.05343511450381679,-0.030534351145038167,-0.030534351145038167
1.1762539672851564,0.3362008666992188,-0.5284011840820313,0.16030534351145037,0.015267175572519083,-0.11450381679389313
1.2247531127929687,0.34248779296875004,-0.5864804077148438,0.16793893129770993,0.09923664122137404,0.0
1.1852352905273438,-0.17992584228515626,-0.4508624267578125,0.20610687022900762,0.11450381679389313,0.16030534351145037
1.1972103881835938,-0.2832110595703125,-0.6221063232421875,0.13740458015267176,0.061068702290076333,0.10687022900763359
1.2061917114257814,0.15298187255859375,-0.8499325561523438,-0.04580152671755725,-0.03816793893129771,-0.1297709923664122
1.2379257202148437,0.30985565185546876,-0.6939569091796876,0.09923664122137404,-0.11450381679389313,-0.10687022900763359
1.0074050903320313,-0.22513183593750002,-0.7679031372070313,0.11450381679389313,-0.19083969465648853,-0.12213740458015267
0.7771838378906251,-0.2805166625976563,-0.7801776123046875,0.24427480916030533,-0.11450381679389313,-0.015267175572519083
1.2259506225585939,-0.03592529296875,-0.7691006469726563,-0.24427480916030533,-0.1297709923664122,0.015267175572519083
1.2196636962890626,0.2197430419921875,-0.70174072265625,-0.5267175572519084,-0.061068702290076333,0.015267175572519083
0.968785400390625,-0.06466552734375,-0.40954833984375,-0.25190839694656486,0.08396946564885496,0.1297709923664122
0.9837542724609375,0.24279510498046877,-0.42571472167968755,-0.1297709923664122,0.08396946564885496,0.06870229007633588
1.0145901489257814,0.113763427734375,-0.5706134033203125,0.2748091603053435,0.0916030534351145,0.030534351145038167
0.9903405761718751,0.0293389892578125,-0.6544390869140625,0.4198473282442748,0.11450381679389313,-0.030534351145038167
1.0873388671875,-0.36434234619140626,-0.544866943359375,0.38167938931297707,0.06870229007633588,0.05343511450381679
1.0364447021484375,-0.540076904296875,-0.707728271484375,0.4351145038167939,-0.022900763358778626,0.015267175572519083
0.9457333374023438,-0.504151611328125,-0.7598199462890626,0.15267175572519084,-0.11450381679389313,-0.06870229007633588
0.8969348144531251,-0.5951623535156251,-0.590372314453125,0.10687022900763359,-0.10687022900763359,-0.061068702290076333
0.9139993286132813,-0.762813720703125,-0.5463638305664062,0.2748091603053435,-0.09923664122137404,-0.08396946564885496
0.9454339599609376,-0.6700067138671876,-0.49786468505859377,0.13740458015267176,-0.07633587786259542,-0.08396946564885496
0.9196875,-0.6735992431640625,-0.40625518798828125,0.11450381679389313,0.007633587786259542,-0.015267175572519083
0.9110055541992188,-0.7047344970703125,-0.35476226806640626,0.05343511450381679,0.022900763358778626,0.007633587786259542
0.6445596313476563,-0.5774990844726563,-0.43379791259765627,-0.10687022900763359,-0.04580152671755725,0.05343511450381679
-0.8753796386718751,0.9463320922851562,-0.19788848876953127,0.4198473282442748,-0.33587786259541985,0.6793893129770993
-1.56873779296875,-0.53408935546875,0.4616400146484375,0.16030534351145037,0.38167938931297707,1.8702290076335877
-0.9092092895507813,-0.7789801025390626,-0.04101470947265625,-0.6106870229007634,0.0,1.580152671755725
