accel.x,accel.y,accel.z,gyro.x,gyro.y,gyro.z
0.023950195312500002,-0.29189300537109375,-0.07903564453125,0.11450381679389313,-0.030534351145038167,-0.022900763358778626
-0.035326538085937505,-0.2924917602539063,0.00389190673828125,0.1450381679389313,0.05343511450381679,-0.022900763358778626
-0.022752685546875002,-0.23590942382812502,-0.08113128662109376,-0.04580152671755725,-0.015267175572519083,0.061068702290076333
-0.14669494628906252,-0.336500244140625,0.0053887939453125,0.08396946564885496,0.061068702290076333,-0.17557251908396945
-0.12603790283203126,-0.1389111328125,-0.0520916748046875,-0.1450381679389313,-0.1297709923664122,0.03816793893129771
0.022752685546875002,-0.37392242431640627,0.06915618896484375,0.20610687022900762,-0.11450381679389313,0.015267175572519083
-1.1403286743164063,-0.20806732177734377,1.9240988159179688,-0.3053435114503817,-0.29770992366412213,0.22900763358778625
-2.6896069335937502,1.3684542846679688,2.4995022583007813,-0.34351145038167935,-0.46564885496183206,0.6030534351145038
0.3541635131835938,2.6911038208007816,-0.5670208740234375,-0.9770992366412213,-0.6717557251908397,-0.22900763358778625
1.9839743041992188,1.6193325805664063,-0.9226812744140626,-0.2900763358778626,-0.282442748091603,0.3893129770992366
1.3034893798828127,2.6135650634765626,-1.9770886230468752,1.2366412213740459,0.9694656488549618,1.1755725190839694
-1.2073892211914063,3.73383544921875,-5.939349060058594,0.1984732824427481,3.3740458015267176,1.4274809160305344
-2.2977218627929688,1.7121395874023437,-1.8220111083984376,-0.2748091603053435,1.9083969465648853,1.450381679389313
0.690963134765625,-4.357139282226563,1.8519488525390626,0.007633587786259542,0.21374045801526717,-0.12213740458015267
0.173638916015625,-2.458188171386719,1.8492544555664063,0.46564885496183206,-1.6030534351145038,-1.6412213740458015
-1.2738510131835938,4.330794067382813,-3.015030212402344,-0.12213740458015267,-1.3206106870229006,-2.5572519083969465
1.8893710327148439,5.654042358398438,0.02664459228515625,-0.23664122137404578,-0.7099236641221374,-0.83206106870229
3.2754885864257814,2.6863137817382814,-0.37661682128906254,0.022900763358778626,-0.3893129770992366,0.46564885496183206
2.2387445068359377,0.7143145751953125,-1.1469149780273438,2.5801526717557253,0.0,1.1908396946564885
-0.6996450805664063,3.21651123046875,-4.359234924316406,0.4351145038167939,2.7557251908396947,1.2290076335877862
-2.8964767456054688,2.685715026855469,-1.0753637695312501,-0.2900763358778626,1.2671755725190839,1.6335877862595418
0.8544232177734375,-1.88967041015625,0.0712518310546875,-0.916030534351145,0.26717557251908397,0.33587786259541985
2.5004003906250003,-2.1704864501953125,-0.00089813232421875,-0.7251908396946565,0.2900763358778626,-0.8702290076335878
1.0211764526367189,-0.26345214843750003,0.5795947265625,0.33587786259541985,-0.2748091603053435,-2.068702290076336
-0.6873706054687501,2.498604125976563,2.17228271484375,0.9083969465648855,0.04580152671755725,-2.5801526717557253
-1.2370275878906252,2.2971231079101564,1.1624826049804688,1.5114503816793892,0.12213740458015267,-2.0381679389312977
0.8211923217773438,1.0672805786132813,0.6738986206054688,0.7480916030534351,-0.20610687022900762,-0.8167938931297709
1.7510586547851563,-0.05358856201171875,1.638193359375,0.061068702290076333,0.26717557251908397,0.0
1.5250286865234375,-1.0538085937500001,1.7190252685546876,0.06870229007633588,0.12213740458015267,0.19083969465648853
1.24301513671875,-1.2424163818359375,1.4974859619140626,-0.061068702290076333,0.030534351145038167,0.12213740458015267
0.9951306152343751,-0.9571096801757814,1.16158447265625,-0.0916030534351145,0.03816793893129771,0.04580152671755725
1.003213806152344,-0.8846603393554688,1.1331436157226562,-0.06870229007633588,0.03816793893129771,0.015267175572519083
0.8430468750000001,-0.5242098999023438,0.8343649291992188,-0.061068702290076333,0.061068702290076333,0.007633587786259542
0.7789801025390626,-0.37811370849609377,0.8032296752929687,-0.04580152671755725,0.16030534351145037,-0.08396946564885496
0.7023394775390626,-0.4763095092773438,0.631087646484375,0.183206106870229,-0.08396946564885496,-0.030534351145038167
0.87897216796875,-0.38170623779296875,0.36314483642578127,0.06870229007633588,0.1450381679389313,0.007633587786259542
0.5867797851562501,-0.36404296875000003,0.650247802734375,0.11450381679389313,0.0,0.07633587786259542
0.5718109130859376,-0.3170407104492188,0.9915380859375,0.0,-0.08396946564885496,0.061068702290076333
0.5718109130859376,-0.3170407104492188,0.9915380859375,0.0,-0.08396946564885496,0.061068702290076333
0.6595285034179688,-0.374820556640625,0.5382806396484375,-0.022900763358778626,0.061068702290076333,-0.007633587786259542
0.37212615966796875,-0.10747650146484375,0.5993536376953126,0.061068702290076333,0.07633587786259542,0.08396946564885496
0.31225067138671875,-0.2505789184570313,0.4140390014648438,-0.07633587786259542,0.03816793893129771,-0.03816793893129771
0.31225067138671875,-0.2505789184570313,0.4140390014648438,-0.07633587786259542,0.03816793893129771,-0.03816793893129771
0.42302032470703127,-0.25147705078125,0.2966830444335938,-0.05343511450381679,0.06870229007633588,0.015267175572519083
0.42302032470703127,-0.25147705078125,0.2966830444335938,-0.05343511450381679,0.06870229007633588,0.015267175572519083
0.29069549560546876,0.08801696777343751,0.40924896240234376,-0.183206106870229,-0.0916030534351145,-0.061068702290076333
0.444276123046875,-0.52929931640625,0.26584716796875,0.12213740458015267,0.1450381679389313,-0.15267175572519084
0.444276123046875,-0.52929931640625,0.26584716796875,0.12213740458015267,0.1450381679389313,-0.15267175572519084
0.2844085693359375,-0.7786807250976563,0.27153533935546875,0.061068702290076333,0.07633587786259542,0.07633587786259542
0.2844085693359375,-0.7786807250976563,0.27153533935546875,0.061068702290076333,0.07633587786259542,0.07633587786259542
-0.13711486816406251,-0.3059637451171875,0.7610174560546875,-0.05343511450381679,0.007633587786259542,0.2748091603053435
-0.13711486816406251,-0.3059637451171875,0.7610174560546875,-0.05343511450381679,0.007633587786259542,0.2748091603053435
-1.4552737426757814,2.3797512817382813,1.2540921020507814,-0.7480916030534351,-1.0534351145038168,-0.09923664122137404
-1.4552737426757814,2.3797512817382813,1.2540921020507814,-0.7480916030534351,-1.0534351145038168,-0.09923664122137404
-1.4552737426757814,2.3797512817382813,1.2540921020507814,-0.7480916030534351,-1.0534351145038168,-0.09923664122137404
0.16166381835937502,4.611310729980469,-0.8089178466796876,1.3129770992366412,1.83206106870229,1.8549618320610686
0.16166381835937502,4.611310729980469,-0.8089178466796876,1.3129770992366412,1.83206106870229,1.8549618320610686
1.683399353027344,3.280578002929688,-1.9300863647460937,1.213740458015267,0.6870229007633587,1.5725190839694656
-3.078498229980469,3.6182757568359376,0.3074606323242188,-0.34351145038167935,0.8091603053435115,2.0610687022900764
-0.305364990234375,-0.7613168334960938,-0.9526190185546876,-0.5572519083969465,0.6183206106870229,0.7404580152671756
1.2972024536132813,-2.242037658691406,-0.042810974121093755,-0.03816793893129771,0.3282442748091603,-0.5801526717557252
-0.19100280761718752,2.366279296875,1.0843450927734375,-0.022900763358778626,-0.26717557251908397,-2.1526717557251906
-0.5547463989257813,2.1920416259765627,0.1359173583984375,0.9312977099236641,-0.11450381679389313,-1.6717557251908397
1.4876065063476562,-0.092208251953125,1.5690371704101562,0.6259541984732824,0.1984732824427481,-0.15267175572519084
1.3358221435546875,-1.12805419921875,1.76033935546875,0.4198473282442748,-0.05343511450381679,0.06870229007633588
1.1454180908203127,-1.7115408325195314,1.5852035522460939,0.03816793893129771,0.007633587786259542,-0.007633587786259542
1.0571017456054688,-1.4813195800781251,1.30528564453125,0.04580152671755725,0.030534351145038167,-0.04580152671755725
1.0103988647460938,-1.2606784057617189,1.1514056396484376,0.061068702290076333,0.06870229007633588,-0.007633587786259542
0.9169931030273438,-1.1837384033203127,0.9684860229492188,-0.015267175572519083,0.030534351145038167,0.03816793893129771
0.8448431396484375,-1.1002120971679688,0.7711962890625,-0.06870229007633588,0.03816793893129771,0.030534351145038167
0.8340655517578125,-0.8523275756835937,0.5748046875,-0.2748091603053435,0.10687022900763359,0.06870229007633588
0.55803955078125,-0.532891845703125,0.585582275390625,0.16030534351145037,-0.030534351145038167,-0.007633587786259542
0.7915539550781251,-0.6316864013671876,0.20357666015625,0.06870229007633588,0.061068702290076333,-0.07633587786259542
0.29368927001953127,-0.8235873413085938,0.3487747192382813,0.41221374045801523,0.061068702290076333,-0.06870229007633588
0.6520440673828125,-0.871787109375,0.3454815673828125,-0.09923664122137404,-0.2748091603053435,0.007633587786259542
0.7011419677734375,-1.1044033813476564,0.4314028930664063,0.6106870229007634,0.183206106870229,-0.13740458015267176
0.4742138671875,-0.6679110717773438,0.501756591796875,0.25190839694656486,0.007633587786259542,0.12213740458015267
0.18052459716796876,-0.8864566040039062,0.47451324462890626,-0.40458015267175573,-0.03816793893129771,0.16793893129770993
0.2652484130859375,-0.6637197875976563,0.13202545166015625,0.04580152671755725,-0.03816793893129771,-0.07633587786259542
0.286204833984375,-0.5251080322265625,0.4667294311523438,0.1450381679389313,-0.015267175572519083,-0.022900763358778626
0.250279541015625,-0.5625302124023438,0.29728179931640625,-0.21374045801526717,-0.015267175572519083,0.04580152671755725
0.13262420654296875,-0.10328521728515626,0.316142578125,-0.1450381679389313,0.1450381679389313,-0.21374045801526717
0.20746856689453125,-0.3894900512695313,0.18142272949218752,-0.23664122137404578,-0.16793893129770993,0.04580152671755725
0.28919860839843753,-0.3263214111328125,0.33829650878906253,0.6641221374045801,0.2213740458015267,-0.08396946564885496
0.17872833251953127,-0.2505789184570313,0.40116577148437504,0.366412213740458,-0.05343511450381679,0.07633587786259542
0.18052459716796876,-0.5469625854492188,0.34129028320312504,-0.2748091603053435,0.030534351145038167,0.0916030534351145
0.08352630615234376,-0.1335223388671875,0.3406915283203125,-0.366412213740458,-0.007633587786259542,0.10687022900763359
0.1676513671875,0.124541015625,0.32332763671875003,-0.366412213740458,0.1450381679389313,0.11450381679389313
-1.0190808105468752,0.499361572265625,2.1354592895507816,-0.3129770992366412,-0.4198473282442748,0.5572519083969465
0.020357666015625,3.028502197265625,1.3729449462890626,-0.9312977099236641,-0.48854961832061067,0.5877862595419847
3.3392559814453127,3.468886413574219,-3.7880227661132815,-0.564885496183206,0.04580152671755725,0.916030534351145
1.3555810546875,4.693040771484375,0.3200344848632813,0.6412213740458015,1.1450381679389312,2.099236641221374
-0.7885601806640625,2.4872277832031253,1.319356384277344,-0.25190839694656486,0.6030534351145038,2.030534351145038
0.1293310546875,-2.425256652832031,0.142503662109375,-0.06870229007633588,0.16030534351145037,0.5801526717557252
1.044228515625,-1.5028747558593751,1.3852194213867188,0.0916030534351145,0.05343511450381679,-1.648854961832061
-0.39847137451171877,4.139491882324219,2.3282583618164066,0.3129770992366412,-0.45038167938931295,-2.5343511450381677
2.5970993041992188,5.1301318359375,2.508483581542969,-0.5877862595419847,0.12213740458015267,-1.6335877862595418
3.7344342041015626,3.3452435302734376,0.6104306030273438,-0.34351145038167935,0.03816793893129771,-0.6717557251908397
3.433260498046875,1.7711169433593752,-0.35745666503906254,0.5801526717557252,-0.22900763358778625,0.29770992366412213
1.3585748291015625,3.7904177856445314,1.4618600463867188,0.9312977099236641,0.916030534351145,2.1908396946564883
-3.998485107421875,4.245471496582032,2.095342712402344,-0.25190839694656486,0.12213740458015267,2.6717557251908395
-0.6277944946289062,-0.8643026733398438,-0.34278717041015627,-0.007633587786259542,0.007633587786259542,0.7022900763358778
0.9148974609375,-1.312470703125,0.2912942504882813,-0.061068702290076333,0.5419847328244275,-1.0305343511450382
-0.21046234130859376,3.5584002685546876,2.399210815429688,0.6106870229007634,0.40458015267175573,-2.3587786259541983
0.30865814208984377,2.920726318359375,1.3765374755859376,0.8702290076335878,0.16793893129770993,-1.8015267175572518
1.0065069580078125,1.730401611328125,0.7786807250976563,1.2213740458015268,0.17557251908396945,-0.8396946564885496
1.4268328857421875,-0.13022918701171876,1.6591497802734376,1.045801526717557,-0.25190839694656486,-0.5419847328244275
1.7537530517578126,-1.37234619140625,2.0758831787109377,0.1450381679389313,-0.007633587786259542,-0.061068702290076333
1.2591815185546875,-1.4262341308593751,1.7121395874023437,-0.183206106870229,0.07633587786259542,0.11450381679389313
1.1463162231445314,-1.2585827636718752,1.2660671997070314,-0.05343511450381679,0.022900763358778626,-0.007633587786259542
1.0924282836914063,-1.1490106201171875,1.2175680541992189,0.015267175572519083,0.07633587786259542,-0.015267175572519083
0.97477294921875,-0.9897418212890625,1.184337158203125,-0.022900763358778626,0.022900763358778626,0.007633587786259542
0.8837622070312501,-1.0277627563476563,1.1463162231445314,0.13740458015267176,-0.007633587786259542,-0.030534351145038167
0.7526348876953125,-0.7454498291015625,0.8427474975585938,-0.0916030534351145,0.061068702290076333,0.07633587786259542
0.6550378417968751,-0.4412823486328125,1.0873388671875,-0.06870229007633588,0.0916030534351145,0.11450381679389313
0.5706134033203125,-0.6233038330078126,0.6319857788085937,-0.06870229007633588,-0.022900763358778626,-0.022900763358778626
0.6966513061523438,-0.24818389892578127,0.7310797119140625,-0.022900763358778626,0.07633587786259542,0.030534351145038167
0.3936813354492188,-0.611927490234375,0.5921685791015625,0.3053435114503817,0.15267175572519084,0.183206106870229
0.43110351562500004,-0.307760009765625,0.645457763671875,-0.549618320610687,-0.17557251908396945,0.15267175572519084
0.6017486572265626,-0.5116360473632813,0.7430548095703126,0.34351145038167935,0.07633587786259542,-0.25190839694656486
0.38050872802734376,0.09729766845703125,0.8951385498046875,0.015267175572519083,-0.030534351145038167,0.06870229007633588
0.255069580078125,-0.44607238769531254,0.6792874145507812,-0.26717557251908397,0.015267175572519083,0.1984732824427481
0.18351837158203127,0.003592529296875,0.6876699829101562,-0.2748091603053435,-0.015267175572519083,0.03816793893129771
0.24279510498046877,-0.2245330810546875,0.6439608764648438,0.05343511450381679,0.05343511450381679,-0.06870229007633588
0.21555175781250002,0.08831634521484376,0.7472460937500001,-0.022900763358778626,-0.022900763358778626,0.04580152671755725
0.1622625732421875,0.16675323486328125,0.8319699096679688,-0.15267175572519084,-0.015267175572519083,-0.12213740458015267
0.1790277099609375,-0.087418212890625,0.5460644531250001,-0.22900763358778625,-0.007633587786259542,-0.0916030534351145
0.25836273193359377,0.2748284912109375,0.890947265625,0.366412213740458,0.0,-0.015267175572519083
0.116158447265625,0.0032931518554687503,0.5646258544921875,-0.29770992366412213,-0.04580152671755725,0.183206106870229
0.14100677490234376,-0.22094055175781252,0.6463558959960938,0.08396946564885496,0.08396946564885496,0.03816793893129771
0.106578369140625,-0.049097900390625004,0.64905029296875,0.12213740458015267,-0.05343511450381679,0.0
0.092208251953125,0.01676513671875,0.7705975341796876,0.04580152671755725,0.007633587786259542,-0.022900763358778626
0.15088623046875002,0.015567626953125,0.6822811889648438,-0.007633587786259542,0.022900763358778626,-0.022900763358778626
-0.9394464111328126,-0.5912704467773438,2.308499450683594,0.16030534351145037,-0.2595419847328244,0.41221374045801523
-2.5078848266601566,1.7139358520507812,2.5099804687500002,-0.5190839694656488,-1.4274809160305344,0.21374045801526717
-0.26375152587890627,3.5116973876953126,-0.5619314575195313,-0.9923664122137404,-0.7022900763358778,0.10687022900763359
1.3130694580078126,2.2052142333984377,-1.6923806762695313,0.4580152671755725,0.015267175572519083,1.0
0.540076904296875,5.246589660644531,1.3205538940429689,1.9694656488549618,0.9007633587786259,1.8931297709923662
-2.115999755859375,4.0565643310546875,2.6300308227539064,0.16793893129770993,0.9083969465648855,2.732824427480916
-0.5092410278320313,-0.31763946533203125,-0.02604583740234375,-0.16030534351145037,0.19083969465648853,0.8473282442748091
0.417930908203125,-2.0839663696289064,0.255069580078125,0.23664122137404578,-0.11450381679389313,-1.045801526717557
0.3373983764648438,4.3541455078125,2.5426126098632813,-0.3969465648854962,0.0,-2.7938931297709924
-0.15178436279296875,5.273833007812501,2.482437744140625,-0.4427480916030534,-1.0076335877862594,-1.984732824427481
1.6666342163085939,3.0629306030273438,-1.9118243408203126,-0.4198473282442748,-0.282442748091603,-0.007633587786259542
1.833088073730469,1.7654287719726562,-1.8372793579101563,0.8702290076335878,0.32061068702290074,0.9694656488549618
1.833387451171875,3.632945251464844,2.5204586791992187,2.1755725190839694,0.6793893129770993,1.984732824427481
-3.655997314453125,4.078119506835938,2.7476861572265627,0.015267175572519083,1.099236641221374,2.8396946564885495
-1.04662353515625,1.5606546020507814,0.32751892089843754,-0.5190839694656488,0.15267175572519084,1.16793893129771
0.3673361206054688,-1.325643310546875,-0.525706787109375,0.015267175572519083,0.10687022900763359,-0.022900763358778626
-0.27542724609375,1.2232562255859376,1.0298583984375,0.22900763358778625,0.40458015267175573,-2.2213740458015265
-0.9547146606445313,4.19367919921875,2.365081787109375,1.099236641221374,-0.20610687022900762,-2.748091603053435
0.19070343017578126,3.5173855590820313,0.8652008056640625,0.3511450381679389,-0.04580152671755725,-1.8702290076335877
0.19070343017578126,3.5173855590820313,0.8652008056640625,0.3511450381679389,-0.04580152671755725,-1.8702290076335877
1.589095458984375,-1.0011181640625,1.7744100952148438,0.4198473282442748,0.04580152671755725,0.03816793893129771
1.5361056518554688,-1.2475057983398439,1.47772705078125,0.09923664122137404,0.09923664122137404,-0.022900763358778626
1.5361056518554688,-1.2475057983398439,1.47772705078125,0.09923664122137404,0.09923664122137404,-0.022900763358778626
1.256187744140625,-1.0463241577148439,0.8990304565429688,-0.06870229007633588,-0.007633587786259542,-0.015267175572519083
1.256187744140625,-1.0463241577148439,0.8990304565429688,-0.06870229007633588,-0.007633587786259542,-0.015267175572519083
1.0463241577148439,-0.784368896484375,0.7325765991210937,-0.06870229007633588,0.015267175572519083,0.015267175572519083
1.0463241577148439,-0.784368896484375,0.7325765991210937,-0.06870229007633588,0.015267175572519083,0.015267175572519083
0.8511300659179688,-0.6481521606445313,0.5568420410156251,0.030534351145038167,0.061068702290076333,-0.007633587786259542
0.8511300659179688,-0.6481521606445313,0.5568420410156251,0.030534351145038167,0.061068702290076333,-0.007633587786259542
0.7179071044921875,-0.30446685791015626,0.5894741821289062,0.022900763358778626,0.0,0.007633587786259542
0.863404541015625,-0.257464599609375,0.09011260986328125,0.0,0.12213740458015267,-0.08396946564885496
0.863404541015625,-0.257464599609375,0.09011260986328125,0.0,0.12213740458015267,-0.08396946564885496
0.094603271484375,-0.5981561279296875,0.3200344848632813,0.6106870229007634,-0.04580152671755725,-0.15267175572519084
0.094603271484375,-0.5981561279296875,0.3200344848632813,0.6106870229007634,-0.04580152671755725,-0.15267175572519084
0.4927752685546875,-0.7131170654296876,0.21465362548828126,0.5190839694656488,0.2748091603053435,-0.2595419847328244
0.4927752685546875,-0.7131170654296876,0.21465362548828126,0.5190839694656488,0.2748091603053435,-0.2595419847328244
0.25806335449218754,-1.033450927734375,0.7667056274414062,0.03816793893129771,0.06870229007633588,-0.015267175572519083
0.25806335449218754,-1.033450927734375,0.7667056274414062,0.03816793893129771,0.06870229007633588,-0.015267175572519083
0.25806335449218754,-1.033450927734375,0.7667056274414062,0.03816793893129771,0.06870229007633588,-0.015267175572519083
0.1484912109375,-0.4137396240234375,0.3418890380859375,-0.15267175572519084,-0.015267175572519083,0.11450381679389313
-0.09310638427734376,-0.094603271484375,0.3960763549804688,0.05343511450381679,0.022900763358778626,-0.13740458015267176
0.07214996337890625,-0.19609222412109376,0.3215313720703125,-0.09923664122137404,-0.17557251908396945,0.061068702290076333
0.23501129150390626,-0.319735107421875,0.32482452392578126,0.8854961832061068,0.2900763358778626,-0.23664122137404578
0.06466552734375,-0.25536895751953126,0.5885760498046876,0.1297709923664122,-0.13740458015267176,0.15267175572519084
-0.13412109375,-0.39517822265625,0.779578857421875,-0.7099236641221374,-0.23664122137404578,0.23664122137404578
-1.140029296875,0.11346405029296876,2.4402255249023437,-0.4961832061068702,-0.1297709923664122,0.7404580152671756
-0.4424798583984375,2.9569509887695316,1.1642788696289064,-0.6564885496183206,-0.7786259541984732,0.11450381679389313
1.5232324218750002,2.489323425292969,-1.1079959106445314,-0.46564885496183206,-0.19083969465648853,0.3511450381679389
1.4316229248046877,4.608915710449219,-3.1198123168945315,1.366412213740458,0.8244274809160305,1.4045801526717556
-0.5571414184570312,4.335883483886719,0.44337799072265627,0.33587786259541985,2.519083969465649,2.6564885496183206
-1.0020162963867187,1.2022998046875,-0.17094451904296876,-0.5801526717557252,0.6335877862595419,1.66412213740458
0.24459136962890626,-4.220623168945313,-1.2169692993164063,0.05343511450381679,0.8015267175572519,-0.3129770992366412
0.1826202392578125,0.05239105224609375,1.83697998046875,0.0916030534351145,-0.5954198473282443,-1.4885496183206106
-0.8738827514648438,4.444258117675782,2.569556579589844,0.38167938931297707,-0.8473282442748091,-2.8091603053435112
1.7702188110351564,5.499862976074219,2.4034020996093752,-0.8778625954198473,0.23664122137404578,-2.0610687022900764
3.437751159667969,4.184398498535156,0.5499563598632813,-0.6564885496183206,0.16030534351145037,-0.7175572519083969
3.423680419921875,1.6902850341796876,-0.32871643066406253,0.7404580152671756,-0.19083969465648853,0.4427480916030534
0.434696044921875,4.111350402832032,2.6827212524414064,1.8625954198473282,0.42748091603053434,2.4427480916030535
-2.4659719848632813,4.551135864257812,2.439028015136719,-0.1450381679389313,0.6717557251908397,2.801526717557252
-1.4582675170898438,1.302890625,1.0615924072265626,0.12213740458015267,-0.9236641221374046,0.8625954198473282
-0.20657043457031252,-1.6220269775390626,-0.27692413330078125,0.061068702290076333,0.3053435114503817,-0.22900763358778625
0.8565188598632812,0.15058685302734376,1.3828244018554687,-0.15267175572519084,1.129770992366412,-1.8244274809160304
0.5158273315429688,4.092789001464844,1.5729290771484377,0.11450381679389313,0.16793893129770993,-2.946564885496183
0.16974700927734376,3.4745745849609375,0.38170623779296875,0.8931297709923663,0.06870229007633588,-1.8091603053435115
1.550475769042969,1.050216064453125,1.1439212036132813,0.6412213740458015,0.1450381679389313,-0.40458015267175573
1.542392578125,-0.7598199462890626,2.039359130859375,0.6412213740458015,-0.030534351145038167,-0.07633587786259542
1.4648538208007813,-1.3609698486328126,1.77949951171875,0.32061068702290074,-0.06870229007633588,0.06870229007633588
1.2439132690429688,-1.5349081420898438,1.5923886108398437,0.07633587786259542,0.04580152671755725,0.030534351145038167
1.2406201171875,-1.4645544433593751,1.1717633056640626,-0.06870229007633588,0.0916030534351145,-0.04580152671755725
1.1780502319335937,-1.1882290649414062,1.0253677368164062,-0.04580152671755725,0.07633587786259542,-0.061068702290076333
1.1079959106445314,-1.122964782714844,0.8595126342773438,-0.007633587786259542,0.022900763358778626,0.007633587786259542
1.1181747436523437,-1.0220745849609376,0.662222900390625,0.0,0.03816793893129771,0.0
1.0789562988281252,-0.7954458618164063,0.3338058471679688,-0.3282442748091603,0.09923664122137404,0.09923664122137404
0.7631130981445313,-0.9529183959960938,0.6559359741210938,0.007633587786259542,-0.16030534351145037,-0.10687022900763359
0.7164102172851563,-0.6487509155273438,0.35595977783203125,0.2595419847328244,-0.20610687022900762,-0.2748091603053435
0.7490423583984376,-0.7373666381835938,0.45026367187500005,0.007633587786259542,0.1450381679389313,0.08396946564885496
0.2844085693359375,-0.6466552734375001,0.32063323974609376,-0.3511450381679389,0.08396946564885496,0.16793893129770993
0.5367837524414063,-0.6200106811523438,0.40745269775390625,-0.33587786259541985,-0.25190839694656486,-0.05343511450381679
0.41763153076171877,-0.8756790161132812,0.1299298095703125,0.8015267175572519,0.3129770992366412,-0.21374045801526717
0.4808001708984375,-0.3538641357421875,0.6325845336914063,0.37404580152671757,-0.15267175572519084,0.10687022900763359
0.3634442138671875,-1.0017169189453126,0.6391708374023438,-0.2900763358778626,-0.061068702290076333,0.0916030534351145
0.195194091796875,-0.47750701904296877,0.4700225830078125,0.0,-0.03816793893129771,0.10687022900763359
0.19010467529296876,-0.43918670654296876,0.4068539428710938,-0.06870229007633588,0.1450381679389313,0.0916030534351145
0.3703298950195313,-0.08711883544921875,0.047900390625000004,-0.32061068702290074,0.26717557251908397,0.19083969465648853
0.2293231201171875,0.3882925415039063,0.22153930664062502,-0.4580152671755725,-0.20610687022900762,-0.1297709923664122
0.2532733154296875,-0.5900729370117188,0.28530670166015626,0.2900763358778626,-0.061068702290076333,-0.12213740458015267
0.178428955078125,-0.38889129638671877,0.3305126953125,1.0229007633587786,0.19083969465648853,-0.061068702290076333
0.05837860107421875,-0.7562274169921875,0.4673281860351563,0.2900763358778626,0.0,0.0
-0.49606842041015625,-0.23201751708984375,1.8773959350585938,-1.1374045801526718,-0.13740458015267176,0.35877862595419846
-2.389930114746094,1.962718505859375,2.4605831909179687,-0.38167938931297707,-1.198473282442748,0.6641221374045801
-0.7852670288085938,3.1183154296875,0.4559518432617188,-1.2213740458015268,-0.916030534351145,0.6030534351145038
1.0157876586914063,2.2474264526367187,-0.7553292846679688,-0.6717557251908397,0.13740458015267176,0.5954198473282443
0.8565188598632812,4.412823486328125,-1.3783337402343752,1.9770992366412212,0.21374045801526717,1.465648854961832
1.7654287719726562,4.248764648437501,-0.22034179687500002,1.8625954198473282,2.1068702290076335,2.1068702290076335
-1.5834072875976564,3.0261071777343753,2.446512451171875,-0.20610687022900762,1.0687022900763359,2.3664122137404577
-0.901724853515625,-1.0346484375,0.43200164794921875,-0.05343511450381679,-0.04580152671755725,0.7251908396946565
-0.204774169921875,-3.6503091430664063,-0.36284545898437504,0.061068702290076333,0.8854961832061068,-0.5267175572519084
-0.513731689453125,2.4542962646484376,1.6007711791992187,0.732824427480916,-1.534351145038168,-2.2900763358778624
0.8316705322265625,4.205055541992188,-0.8592132568359375,-0.7709923664122137,-0.9389312977099237,-2.465648854961832
2.874322814941406,4.674479370117187,1.1478131103515625,-1.0687022900763359,-0.5038167938931297,-1.5038167938931297
2.960244140625,2.309397583007813,-0.9139993286132813,0.2213740458015267,-0.3969465648854962,-0.1297709923664122
2.6878106689453127,3.2452514648437503,0.4358935546875,1.9770992366412212,-0.24427480916030533,1.3358778625954197
-0.4355941772460938,3.886517944335938,1.7307009887695313,0.8167938931297709,1.748091603053435,2.4580152671755724
-1.6483721923828125,3.8685552978515627,-0.6753955078125,0.0,1.3893129770992365,1.900763358778626
0.42840911865234377,-0.6747967529296875,0.7442523193359375,0.04580152671755725,0.21374045801526717,0.7786259541984732
1.0253677368164062,-2.122286682128906,0.8436456298828126,0.19083969465648853,0.007633587786259542,-0.366412213740458
0.5230123901367187,0.0676593017578125,0.36973114013671876,-0.24427480916030533,-0.6870229007633587,-2.0381679389312977
-0.6439608764648438,3.756588134765625,0.3116519165039063,-0.08396946564885496,0.21374045801526717,-2.480916030534351
0.5412744140625,3.3126113891601565,1.0894345092773439,0.7862595419847328,0.19083969465648853,-1.7938931297709924
1.7711169433593752,0.2520758056640625,1.5106585693359376,0.6335877862595419,0.1450381679389313,-0.15267175572519084
1.7079483032226563,-0.7179071044921875,1.866917724609375,0.5419847328244275,-0.12213740458015267,0.030534351145038167
1.5543676757812501,-1.3085787963867188,1.6965719604492189,0.2748091603053435,0.007633587786259542,0.03816793893129771
1.3184582519531252,-1.2915142822265626,1.5669415283203125,0.09923664122137404,0.0,0.04580152671755725
1.2403207397460938,-1.2304412841796875,1.3573773193359375,0.022900763358778626,0.061068702290076333,-0.015267175572519083
1.1609857177734375,-1.1166778564453126,1.1633807373046876,0.061068702290076333,0.07633587786259542,-0.05343511450381679
1.2250524902343751,-1.04183349609375,0.6891668701171876,-0.24427480916030533,0.21374045801526717,-0.03816793893129771
0.9942324829101563,-0.5116360473632813,0.9035211181640626,-0.06870229007633588,0.1450381679389313,-0.1297709923664122
0.9355545043945312,-0.7990383911132813,0.46523254394531255,-0.015267175572519083,-0.030534351145038167,0.21374045801526717
1.3151651000976563,-0.8155041503906251,0.24818389892578127,0.20610687022900762,0.16030534351145037,-0.015267175572519083
0.38290374755859374,-0.8349636840820313,0.8038284301757813,0.48854961832061067,0.030534351145038167,-0.33587786259541985
0.7900570678710938,-0.5625302124023438,0.26614654541015625,-0.7251908396946565,-0.45038167938931295,0.1297709923664122
0.6466552734375001,-0.5685177612304688,0.7065307617187501,0.7099236641221374,0.1450381679389313,-0.282442748091603
0.705333251953125,-0.46343627929687503,0.396375732421875,-0.1297709923664122,0.16030534351145037,0.20610687022900762
0.09250762939453125,-0.12274475097656251,0.41344024658203127,-0.6641221374045801,-0.29770992366412213,0.1450381679389313
0.338895263671875,-0.13412109375,0.324525146484375,-0.030534351145038167,-0.061068702290076333,-0.13740458015267176
0.28919860839843753,0.076640625,0.5786965942382812,0.1297709923664122,0.15267175572519084,-0.16030534351145037
0.28291168212890627,-0.07604187011718751,0.35206787109375004,-0.2213740458015267,-0.04580152671755725,0.08396946564885496
0.03203338623046875,0.15597564697265626,0.39398071289062503,-0.2213740458015267,0.0916030534351145,-0.10687022900763359
0.32721954345703125,0.38589752197265625,0.36853363037109377,-0.17557251908396945,-0.19083969465648853,-0.11450381679389313
0.26195526123046875,-0.137713623046875,0.5134323120117188,0.6259541984732824,0.1984732824427481,-0.11450381679389313
0.16016693115234376,-0.11795471191406251,0.5981561279296875,0.20610687022900762,-0.061068702290076333,0.04580152671755725
-0.08322692871093751,-0.37901184082031253,0.5646258544921875,-0.42748091603053434,-0.1297709923664122,0.2213740458015267
-0.5224136352539063,-0.02604583740234375,1.68369873046875,-0.46564885496183206,0.16793893129770993,0.5725190839694656
-3.4371524047851563,1.5492782592773438,2.348915405273438,0.5801526717557252,-1.7251908396946565,0.061068702290076333
-1.1097921752929687,2.7955865478515625,-0.17333953857421877,-1.4122137404580153,-0.9770992366412213,0.10687022900763359
1.1295510864257814,3.1554382324218753,-2.2519171142578127,0.24427480916030533,0.5343511450381679,1.015267175572519
0.7346722412109375,4.9388296508789065,1.5729290771484377,2.0076335877862594,1.3435114503816794,2.5114503816793894
-1.7654287719726562,3.639232177734375,1.44419677734375,-0.4961832061068702,0.11450381679389313,1.7557251908396947
-0.36314483642578127,-1.5199392700195313,-0.669407958984375,-0.2748091603053435,0.022900763358778626,0.5725190839694656
0.46762756347656254,-1.217867431640625,-0.28021728515625,0.11450381679389313,0.3511450381679389,-1.2442748091603053
0.46762756347656254,-1.217867431640625,-0.28021728515625,0.11450381679389313,0.3511450381679389,-1.2442748091603053
0.46762756347656254,-1.217867431640625,-0.28021728515625,0.11450381679389313,0.3511450381679389,-1.2442748091603053
1.9902612304687501,3.7209622192382814,0.5370831298828125,-0.5114503816793893,-1.0534351145038168,-0.9083969465648855
2.612666931152344,2.090552673339844,-0.9178912353515626,0.5038167938931297,0.20610687022900762,0.564885496183206
1.7513580322265625,3.861669616699219,1.6798068237304689,1.7022900763358777,0.47328244274809156,1.7786259541984732
1.7513580322265625,3.861669616699219,1.6798068237304689,1.7022900763358777,0.47328244274809156,1.7786259541984732
-1.172362060546875,2.7294241333007814,-0.5960604858398438,-0.24427480916030533,0.9770992366412213,1.6106870229007633
-1.172362060546875,2.7294241333007814,-0.5960604858398438,-0.24427480916030533,0.9770992366412213,1.6106870229007633
-1.172362060546875,2.7294241333007814,-0.5960604858398438,-0.24427480916030533,0.9770992366412213,1.6106870229007633
-0.61552001953125,3.2036380004882816,-1.1849359130859376,0.3511450381679389,-0.9236641221374046,-2.114503816793893
-0.61552001953125,3.2036380004882816,-1.1849359130859376,0.3511450381679389,-0.9236641221374046,-2.114503816793893
-0.61552001953125,3.2036380004882816,-1.1849359130859376,0.3511450381679389,-0.9236641221374046,-2.114503816793893
1.4471905517578125,-0.37242553710937504,1.3034893798828127,0.38167938931297707,0.015267175572519083,-0.40458015267175573
1.4471905517578125,-0.37242553710937504,1.3034893798828127,0.38167938931297707,0.015267175572519083,-0.40458015267175573
1.2202624511718752,-1.4528787231445313,1.9309844970703125,0.19083969465648853,-0.030534351145038167,0.061068702290076333
1.2202624511718752,-1.4528787231445313,1.9309844970703125,0.19083969465648853,-0.030534351145038167,0.061068702290076333
1.2202624511718752,-1.4528787231445313,1.9309844970703125,0.19083969465648853,-0.030534351145038167,0.061068702290076333
0.8720864868164063,-1.1933184814453126,1.1349398803710937,0.0,0.022900763358778626,0.015267175572519083
0.8720864868164063,-1.1933184814453126,1.1349398803710937,0.0,0.022900763358778626,0.015267175572519083
0.7726931762695313,-0.9418414306640626,0.8984317016601563,-0.05343511450381679,0.022900763358778626,-0.007633587786259542
0.7726931762695313,-0.9418414306640626,0.8984317016601563,-0.05343511450381679,0.022900763358778626,-0.007633587786259542
0.5730084228515625,-0.6014492797851563,0.8247848510742188,0.03816793893129771,-0.015267175572519083,-0.03816793893129771
0.5730084228515625,-0.6014492797851563,0.8247848510742188,0.03816793893129771,-0.015267175572519083,-0.03816793893129771
0.5822891235351563,-0.9110055541992188,0.5559439086914063,0.08396946564885496,0.05343511450381679,0.1450381679389313
0.358055419921875,-0.585582275390625,0.6661148071289062,-0.46564885496183206,-0.061068702290076333,-0.022900763358778626
0.6984475708007812,-0.6496490478515625,0.44188110351562504,0.2213740458015267,-0.16030534351145037,-0.03816793893129771
0.5158273315429688,-0.8098159790039063,0.6167175292968751,0.5343511450381679,0.061068702290076333,-0.1297709923664122
0.33709899902343754,-0.5730084228515625,0.46373565673828127,-0.03816793893129771,0.04580152671755725,0.10687022900763359
0.15358062744140627,-0.887354736328125,0.7283853149414062,0.015267175572519083,0.007633587786259542,0.06870229007633588
0.1490899658203125,-0.5786965942382812,0.2859054565429688,-0.0916030534351145,-0.015267175572519083,-0.061068702290076333
0.24908203125,-0.6020480346679687,0.3703298950195313,0.19083969465648853,-0.061068702290076333,-0.07633587786259542
0.09430389404296875,-0.5319937133789063,0.3990701293945313,-0.12213740458015267,0.05343511450381679,-0.015267175572519083
0.003592529296875,-0.22513183593750002,0.5439688110351563,-0.2748091603053435,-0.015267175572519083,-0.09923664122137404
0.3035687255859375,-0.4655319213867188,0.1395098876953125,0.06870229007633588,-0.015267175572519083,-0.022900763358778626
0.17214202880859375,-0.27842102050781253,0.45535308837890626,0.6717557251908397,0.0916030534351145,-0.10687022900763359
0.19728973388671875,-0.48109954833984375,0.4454736328125,-0.20610687022900762,0.12213740458015267,0.1450381679389313
0.1335223388671875,-0.1874102783203125,0.5427713012695313,-0.282442748091603,-0.030534351145038167,-0.030534351145038167
-0.8544232177734375,0.4709207153320313,1.9770886230468752,-0.5190839694656488,-0.4580152671755725,0.030534351145038167
-2.020198974609375,2.0516336059570315,2.099533996582031,-1.0534351145038168,-0.9694656488549618,0.19083969465648853
0.9355545043945312,3.264112243652344,-0.02963836669921875,-1.2748091603053435,-0.32061068702290074,-0.12213740458015267
2.5462051391601563,4.664599914550782,-1.49209716796875,1.0229007633587786,-0.007633587786259542,1.297709923664122
0.5882766723632813,5.580395507812501,1.7594412231445313,1.1450381679389312,0.8015267175572519,2.099236641221374
-1.5609539794921876,4.037104797363281,2.5243505859375,-0.2748091603053435,0.6259541984732824,2.717557251908397
-0.7595205688476563,-0.3487747192382813,0.7565267944335938,0.1984732824427481,0.13740458015267176,0.9770992366412213
0.6268963623046875,-2.161505126953125,-0.7691006469726563,-0.04580152671755725,0.3893129770992366,0.23664122137404578
0.83586181640625,-2.57464599609375,1.5834072875976564,0.5877862595419847,0.10687022900763359,-1.282442748091603
-1.0666818237304687,3.7476068115234376,1.4447955322265627,-0.32061068702290074,-0.9312977099236641,-2.610687022900763
0.01526824951171875,4.7756689453125,1.0023156738281251,-0.5114503816793893,-0.6564885496183206,-2.045801526717557
2.885699157714844,4.216731262207031,1.2199630737304688,-0.6870229007633587,0.007633587786259542,-0.9541984732824427
3.3224908447265626,1.9549346923828126,0.10029144287109376,-0.0916030534351145,-0.16030534351145037,0.22900763358778625
1.8767971801757815,2.800675964355469,0.458646240234375,1.4274809160305344,-0.3129770992366412,1.2519083969465647
-3.383863220214844,4.064048767089844,2.5246499633789066,0.05343511450381679,1.0534351145038168,3.145038167938931
-1.72680908203125,2.5965005493164064,0.5727090454101563,-0.2595419847328244,0.32061068702290074,1.7633587786259541
0.7226971435546875,-1.0232720947265626,-0.5996530151367188,-0.12213740458015267,0.3511450381679389,0.32061068702290074
1.631906433105469,-1.996248779296875,0.15417938232421877,0.35877862595419846,0.9847328244274809,-1.0687022900763359
-0.3311114501953125,2.2447320556640626,1.3852194213867188,0.9618320610687022,-0.12213740458015267,-2.1374045801526718
-1.0235714721679687,2.4001089477539064,-0.6173162841796875,1.8396946564885495,-0.6412213740458015,-2.229007633587786
0.6289920043945313,1.7390835571289063,0.11346405029296876,0.23664122137404578,0.6030534351145038,-1.3206106870229006
1.7723144531250001,-0.202379150390625,1.3415103149414063,0.47328244274809156,0.183206106870229,0.366412213740458
1.8755996704101563,-1.004710693359375,1.6510665893554688,0.7862595419847328,0.0,0.061068702290076333
1.6205300903320314,-1.2002041625976563,1.3480966186523438,-0.3893129770992366,0.15267175572519084,0.15267175572519084
1.4561718750000001,-1.4283297729492188,1.0103988647460938,0.09923664122137404,-0.03816793893129771,0.05343511450381679
1.3250445556640627,-1.2487033081054688,0.7969427490234375,-0.04580152671755725,0.007633587786259542,0.015267175572519083
1.2373269653320313,-1.0412347412109375,0.6873706054687501,-0.030534351145038167,-0.007633587786259542,-0.022900763358778626
1.1415261840820312,-0.8496331787109376,0.5433700561523438,-0.05343511450381679,0.015267175572519083,0.0
1.0810519409179689,-0.803529052734375,0.43260040283203127,-0.022900763358778626,0.007633587786259542,0.022900763358778626
0.9562115478515626,-0.6990463256835938,0.3496728515625,-0.0916030534351145,0.04580152671755725,0.007633587786259542
1.0588980102539063,-0.7173083496093751,0.16106506347656252,-0.07633587786259542,0.10687022900763359,0.07633587786259542
0.7349716186523438,-0.5942642211914063,0.2077679443359375,0.2213740458015267,-0.015267175572519083,-0.0916030534351145
0.88855224609375,-0.7547305297851563,0.028740234375,0.4198473282442748,-0.07633587786259542,-0.022900763358778626
0.6984475708007812,-0.7229965209960938,0.44756927490234377,-0.13740458015267176,0.03816793893129771,0.03816793893129771
0.6152206420898437,-0.5071453857421875,0.10328521728515626,-0.2748091603053435,-0.183206106870229,-0.13740458015267176
0.43230102539062504,-0.9223818969726563,0.17932708740234377,0.11450381679389313,-0.15267175572519084,0.015267175572519083
0.4340972900390625,-0.484991455078125,0.36015106201171876,0.6641221374045801,0.25190839694656486,-0.1450381679389313
0.45026367187500005,-0.8625064086914063,0.32841705322265624,-0.06870229007633588,-0.022900763358778626,0.16030534351145037
0.247884521484375,-0.540076904296875,0.2137554931640625,-0.06870229007633588,0.10687022900763359,0.03816793893129771
0.2856060791015625,-0.6122268676757813,-0.11286529541015626,-0.0916030534351145,-0.1450381679389313,0.06870229007633588
0.18471588134765626,-0.62989013671875,0.25896148681640624,0.16030534351145037,0.007633587786259542,-0.030534351145038167
0.02963836669921875,-0.5098397827148438,0.07454498291015625,-0.22900763358778625,0.030534351145038167,-0.11450381679389313
0.0987945556640625,0.20357666015625,0.21615051269531252,-0.5190839694656488,-0.2900763358778626,0.06870229007633588
0.13262420654296875,-0.468226318359375,0.18920654296875,-0.26717557251908397,-0.1297709923664122,0.10687022900763359
-0.04580474853515625,-0.09550140380859376,0.3787124633789063,0.2900763358778626,-0.07633587786259542,0.061068702290076333
0.2682421875,-0.7478448486328125,0.22573059082031252,-0.20610687022900762,0.06870229007633588,0.022900763358778626
0.1023870849609375,-0.0449066162109375,0.055384826660156254,-0.32061068702290074,-0.007633587786259542,-0.03816793893129771
-0.6457571411132813,0.5789959716796875,1.2061917114257814,-1.0381679389312977,-0.20610687022900762,0.6412213740458015
-2.3294558715820313,2.5767416381835937,2.532733154296875,-1.5267175572519083,-1.0763358778625953,0.42748091603053434
1.2472064208984375,3.9065762329101563,0.8571176147460938,-1.450381679389313,-0.3893129770992366,-0.4427480916030534
2.7464886474609376,3.945495300292969,-0.036524047851562505,0.1450381679389313,0.0916030534351145,0.7938931297709924
1.0912307739257814,5.5675222778320315,2.4168740844726564,1.3893129770992365,0.6412213740458015,2.549618320610687
-1.5920892333984376,3.829336853027344,2.81893798828125,-0.3282442748091603,0.1297709923664122,2.5267175572519083
0.00987945556640625,-1.0181826782226564,0.209564208984375,-0.3282442748091603,0.45038167938931295,1.0381679389312977
0.5867797851562501,-2.6458978271484375,-0.31644195556640625,-0.007633587786259542,0.4809160305343511,-0.282442748091603
0.14579681396484376,2.4539968872070315,2.472857666015625,0.4427480916030534,-0.08396946564885496,-2.16793893129771
0.3008743286132813,4.714296569824219,2.4111859130859377,-0.366412213740458,-0.33587786259541985,-2.3664122137404577
2.9737161254882816,4.949906616210938,1.5298187255859377,-0.5572519083969465,-0.07633587786259542,-1.3358778625954197
3.783831481933594,2.212099914550781,-0.0449066162109375,0.183206106870229,-0.3511450381679389,-0.015267175572519083
1.8136285400390626,2.8895910644531253,0.7023394775390626,1.2061068702290076,-0.7633587786259541,0.8396946564885496
-0.05358856201171875,3.8335281372070313,3.1284942626953125,1.282442748091603,0.8473282442748091,2.312977099236641
-3.4706826782226563,3.9832168579101563,1.8986517333984376,0.366412213740458,1.0305343511450382,2.0534351145038165
-0.49576904296875,-1.9591259765625002,0.9912387084960937,0.015267175572519083,0.05343511450381679,0.32061068702290074
0.22423370361328127,-1.6851956176757814,1.5193405151367188,0.0916030534351145,-0.40458015267175573,-1.8778625954198473
0.080233154296875,3.2823742675781253,1.3310321044921876,-0.7557251908396946,-0.10687022900763359,-2.015267175572519
0.2820135498046875,3.2590228271484376,1.2151730346679688,-0.17557251908396945,0.25190839694656486,-2.213740458015267
0.3565585327148438,0.9729766845703125,0.8331674194335938,1.129770992366412,0.7557251908396946,-2.0763358778625953
1.5911911010742188,-0.51492919921875,1.7543518066406252,0.9312977099236641,0.29770992366412213,-0.022900763358778626
1.6777111816406252,-1.3229489135742187,2.0836669921875,1.0687022900763359,-0.030534351145038167,0.1450381679389313
1.5840060424804687,-1.4259347534179687,2.3438259887695314,-0.09923664122137404,0.0916030534351145,0.1297709923664122
1.4735357666015625,-1.5447875976562502,2.055824890136719,0.0,0.05343511450381679,-0.015267175572519083
1.414259033203125,-1.6178356933593752,1.9019448852539063,0.1984732824427481,0.007633587786259542,-0.03816793893129771
1.3657598876953125,-1.3756393432617189,1.3804293823242189,-0.12213740458015267,0.030534351145038167,-0.030534351145038167
1.1334429931640626,-1.507664794921875,0.9774673461914063,-0.366412213740458,0.08396946564885496,-0.06870229007633588
1.2519964599609377,-1.2496014404296876,0.6032455444335938,-0.183206106870229,0.07633587786259542,-0.06870229007633588
1.3468991088867188,-1.1199710083007812,0.8065228271484376,0.1297709923664122,0.22900763358778625,0.04580152671755725
0.7358697509765625,-0.6915618896484376,0.6167175292968751,-0.3893129770992366,-0.22900763358778625,-0.11450381679389313
1.0819500732421876,-0.3065625,0.3906875610351563,-0.6793893129770993,-0.24427480916030533,0.06870229007633588
0.8047265625000001,-0.9343569946289063,0.22513183593750002,1.748091603053435,0.21374045801526717,-0.37404580152671757
0.7370672607421875,-0.3730242919921875,0.4397854614257813,-0.12213740458015267,-0.08396946564885496,0.12213740458015267
0.5541476440429688,-1.2397219848632812,0.7041357421875001,-0.35877862595419846,0.015267175572519083,0.022900763358778626
0.5951623535156251,-0.8379574584960938,0.25297393798828127,0.022900763358778626,-0.030534351145038167,-0.0916030534351145
0.6170169067382812,-0.6987469482421875,0.2942880249023438,0.0,-0.007633587786259542,-0.061068702290076333
0.47870452880859377,-0.647852783203125,0.27393035888671874,-0.13740458015267176,0.022900763358778626,0.030534351145038167
0.37661682128906254,-0.4427792358398438,0.16795074462890625,-0.15267175572519084,0.07633587786259542,-0.030534351145038167
0.37661682128906254,-0.4427792358398438,0.16795074462890625,-0.15267175572519084,0.07633587786259542,-0.030534351145038167
0.37661682128906254,-0.4427792358398438,0.16795074462890625,-0.15267175572519084,0.07633587786259542,-0.030534351145038167
0.23920257568359377,-0.00508941650390625,0.1359173583984375,0.6717557251908397,0.15267175572519084,-0.09923664122137404
0.1981878662109375,-0.3745211791992188,0.15597564697265626,-0.48854961832061067,0.04580152671755725,0.183206106870229
0.4571493530273438,-0.5176235961914063,0.14340179443359377,-0.007633587786259542,0.0916030534351145,-0.08396946564885496
0.4571493530273438,-0.5176235961914063,0.14340179443359377,-0.007633587786259542,0.0916030534351145,-0.08396946564885496
-0.7840695190429688,0.3598516845703125,1.7163308715820313,-0.7099236641221374,-0.022900763358778626,0.42748091603053434
-1.3157638549804689,3.3961376953125,1.0771600341796876,-1.1450381679389312,-1.1603053435114503,0.366412213740458
-1.3157638549804689,3.3961376953125,1.0771600341796876,-1.1450381679389312,-1.1603053435114503,0.366412213740458
2.526446228027344,3.972738647460938,-0.530496826171875,0.05343511450381679,0.15267175572519084,0.83206106870229
2.526446228027344,3.972738647460938,-0.530496826171875,0.05343511450381679,0.15267175572519084,0.83206106870229
-1.4962884521484376,4.008663940429687,1.9543359375,0.4580152671755725,1.6030534351145038,2.786259541984733
-1.4962884521484376,4.008663940429687,1.9543359375,0.4580152671755725,1.6030534351145038,2.786259541984733
0.31763946533203125,-3.44643310546875,0.7550299072265625,0.4580152671755725,-0.1450381679389313,-0.2748091603053435
0.7373666381835938,1.9405645751953127,2.1797671508789063,-0.5038167938931297,-0.5038167938931297,-1.900763358778626
0.6933581542968751,4.996609497070312,1.839375,-0.564885496183206,-0.10687022900763359,-2.114503816793893
0.6933581542968751,4.996609497070312,1.839375,-0.564885496183206,-0.10687022900763359,-2.114503816793893
3.755989379882813,2.0288809204101566,-0.17812957763671877,0.6259541984732824,-0.40458015267175573,-0.04580152671755725
3.755989379882813,2.0288809204101566,-0.17812957763671877,0.6259541984732824,-0.40458015267175573,-0.04580152671755725
-2.2839505004882814,3.8766384887695313,2.5596771240234375,0.9923664122137404,1.5419847328244274,2.717557251908397
-1.0424322509765624,1.572030944824219,0.6849755859375001,0.23664122137404578,0.5190839694656488,1.534351145038168
0.9981243896484375,-1.799857177734375,0.2652484130859375,0.05343511450381679,0.4580152671755725,-0.32061068702290074
0.9014254760742187,-0.4673281860351563,0.8364605712890626,0.366412213740458,0.4580152671755725,-2.198473282442748
-1.0843450927734375,4.011358337402344,0.9385482788085938,0.5114503816793893,-0.04580152671755725,-2.297709923664122
-0.1047821044921875,1.7627343750000002,0.5643264770507813,1.5038167938931297,0.29770992366412213,-1.8702290076335877
1.1289523315429688,1.3406121826171875,0.8562194824218751,0.8702290076335878,0.47328244274809156,-0.3969465648854962
1.8744021606445314,-0.61552001953125,1.8208135986328127,0.6870229007633587,0.1450381679389313,0.06870229007633588
1.7160314941406252,-1.2436138916015627,1.7582437133789064,0.46564885496183206,0.061068702290076333,0.282442748091603
1.5465838623046875,-1.490899658203125,1.5929873657226563,-0.07633587786259542,0.16030534351145037,0.07633587786259542
1.4130615234375001,-1.4166540527343752,1.3214520263671876,-0.03816793893129771,-0.06870229007633588,0.03816793893129771
1.2645703125,-1.4849121093750002,0.7855664062500001,0.25190839694656486,0.09923664122137404,0.08396946564885496
1.189127197265625,-1.2121792602539063,0.9768685913085938,0.0916030534351145,0.022900763358778626,-0.10687022900763359
1.4594650268554688,-1.0086026000976562,0.7319778442382813,0.17557251908396945,0.16793893129770993,-0.015267175572519083
0.6774911499023438,-0.9618997192382813,0.5643264770507813,-0.5038167938931297,-0.061068702290076333,-0.183206106870229
1.0975177001953125,-0.6397695922851563,0.5194198608398438,-0.3511450381679389,-0.45038167938931295,0.20610687022900762
0.8391549682617188,-0.9786648559570313,0.0173638916015625,0.38167938931297707,0.22900763358778625,-0.21374045801526717
0.6843768310546875,-0.7074288940429688,0.47481262207031255,-0.21374045801526717,-0.183206106870229,0.04580152671755725
0.4409829711914063,-0.9181906127929688,0.6110293579101563,-0.17557251908396945,0.23664122137404578,0.0916030534351145
0.6631210327148438,-0.8286767578125,0.16196319580078125,-0.3511450381679389,-0.13740458015267176,-0.04580152671755725
0.6251000976562501,-0.6786886596679688,0.0963995361328125,0.13740458015267176,0.12213740458015267,-0.10687022900763359
0.3550616455078125,-0.7095245361328125,0.39547760009765626,-0.15267175572519084,-0.061068702290076333,0.061068702290076333
0.28770172119140625,-0.607137451171875,0.2667453002929688,-0.10687022900763359,0.10687022900763359,-0.11450381679389313
0.33290771484375004,-0.16914825439453127,0.2604583740234375,-0.29770992366412213,-0.282442748091603,0.17557251908396945
0.27422973632812503,-0.5933660888671876,0.38290374755859374,0.9541984732824427,0.19083969465648853,-0.3969465648854962
0.2173480224609375,-0.678988037109375,0.5062472534179687,0.11450381679389313,0.10687022900763359,0.1984732824427481
0.20686981201171875,-0.5011578369140626,0.5676196289062501,-0.6641221374045801,0.11450381679389313,-0.11450381679389313
0.41852966308593753,0.09250762939453125,0.38589752197265625,-0.25190839694656486,0.030534351145038167,-0.3511450381679389
-0.07304809570312501,0.1526824951171875,0.12124786376953126,0.33587786259541985,-0.3053435114503817,0.015267175572519083
-1.0618917846679687,0.28830047607421877,1.2133767700195313,-0.6946564885496183,0.5343511450381679,0.7786259541984732
-2.262395324707031,1.3549822998046877,2.246228942871094,-1.1068702290076335,-1.4045801526717556,0.26717557251908397
0.59635986328125,3.47996337890625,0.6343807983398437,-1.465648854961832,-0.5267175572519084,-0.37404580152671757
2.292333068847656,4.175716552734375,-0.43200164794921875,-0.1984732824427481,-0.03816793893129771,0.9007633587786259
2.0483404541015626,6.066285095214844,2.3273602294921876,1.4198473282442747,-0.0916030534351145,2.1755725190839694
-2.0124151611328127,4.2661285400390625,2.7940896606445316,-0.282442748091603,0.41221374045801523,2.648854961832061
-0.42242156982421875,0.5679190063476562,0.07454498291015625,-0.32061068702290074,0.16793893129770993,1.3129770992366412
1.04183349609375,-2.7677444458007816,0.7717950439453125,0.38167938931297707,0.16030534351145037,-0.4427480916030534
0.8415499877929687,0.779578857421875,0.688568115234375,0.183206106870229,0.03816793893129771,-2.0534351145038165
-0.9157955932617188,4.555925903320313,2.774330749511719,0.3282442748091603,-0.015267175572519083,-2.595419847328244
2.9099487304687504,5.380111999511719,2.841391296386719,-0.32061068702290074,0.3129770992366412,-1.66412213740458
4.198169860839844,3.1317874145507814,1.1370355224609376,0.030534351145038167,-0.13740458015267176,-0.42748091603053434
3.2257919311523438,1.8636245727539062,0.4544549560546875,0.8244274809160305,-0.10687022900763359,0.6564885496183206
-1.3600717163085938,3.985013122558594,2.575843505859375,0.2213740458015267,0.6564885496183206,2.801526717557252
-2.711162109375,4.225413208007812,0.5463638305664062,-0.17557251908396945,0.40458015267175573,2.16793893129771
0.1383123779296875,-0.1981878662109375,-0.10687774658203125,-0.38167938931297707,0.1984732824427481,0.7404580152671756
0.9352551269531251,-1.3247451782226562,0.017064514160156252,0.19083969465648853,0.46564885496183206,-0.7099236641221374
1.0256671142578127,-0.9271719360351564,1.12805419921875,-0.015267175572519083,0.10687022900763359,0.03816793893129771
0.8882528686523438,-0.6265969848632813,0.9119036865234376,-0.08396946564885496,0.04580152671755725,0.007633587786259542
0.8622070312500001,-0.5047503662109375,0.8331674194335938,-0.03816793893129771,0.04580152671755725,0.0
0.7274871826171876,-0.3418890380859375,0.795146484375,-0.1450381679389313,0.04580152671755725,0.0
0.5694158935546876,-0.20866607666015627,0.7334747314453125,-0.22900763358778625,-0.10687022900763359,0.16030534351145037
0.4793032836914063,-0.10508148193359376,0.8277786254882813,0.10687022900763359,-0.13740458015267176,0.007633587786259542
0.540076904296875,-0.0724493408203125,0.7119195556640625,0.2213740458015267,0.015267175572519083,-0.030534351145038167
0.5146298217773437,0.0101788330078125,0.7909552001953125,0.15267175572519084,0.03816793893129771,0.03816793893129771
0.29458740234375,-0.19399658203125,0.5751040649414063,-0.030534351145038167,0.5038167938931297,-0.16793893129770993
0.559237060546875,-0.2389031982421875,0.7912545776367188,0.37404580152671757,-0.3511450381679389,0.183206106870229
0.4577481079101563,-0.6864724731445313,0.44876678466796877,-0.06870229007633588,0.12213740458015267,-0.030534351145038167
0.4056564331054688,-0.30835876464843753,0.5167254638671875,0.05343511450381679,0.030534351145038167,0.0
0.2520758056640625,-0.36793487548828124,0.5978567504882812,-0.06870229007633588,0.007633587786259542,0.08396946564885496
0.18830841064453127,-0.1407073974609375,0.5298980712890625,-0.06870229007633588,-0.022900763358778626,-0.11450381679389313
0.3158432006835938,-0.31524444580078126,0.22513183593750002,0.1450381679389313,-0.07633587786259542,-0.09923664122137404
0.2808160400390625,-0.40745269775390625,0.5822891235351563,0.09923664122137404,0.07633587786259542,-0.06870229007633588
-0.10747650146484375,-0.44756927490234377,0.4819976806640625,-0.2748091603053435,-0.05343511450381679,0.0
0.335302734375,-0.350870361328125,0.3059637451171875,-0.061068702290076333,0.022900763358778626,-0.15267175572519084
0.27931915283203124,-0.6529421997070313,0.3400927734375,0.46564885496183206,-0.022900763358778626,-0.0916030534351145
0.089813232421875,-0.6307882690429688,0.6637197875976563,0.35877862595419846,0.007633587786259542,0.17557251908396945
0.22273681640625,-1.2831317138671876,0.6194119262695312,0.2595419847328244,0.06870229007633588,0.03816793893129771
0.0544866943359375,-0.6343807983398437,0.9711804199218751,-0.6259541984732824,-0.11450381679389313,-0.04580152671755725
-0.33979339599609376,-0.30326934814453127,0.4870870971679688,-0.3893129770992366,-0.366412213740458,0.030534351145038167
-1.9465521240234376,0.1634600830078125,1.9881655883789064,-0.45038167938931295,-0.3282442748091603,0.732824427480916
-0.8672964477539062,1.849853210449219,1.0867401123046876,-0.7938931297709924,-0.8473282442748091,0.3129770992366412
1.7345928955078125,1.6262182617187502,-0.9714797973632813,-1.0229007633587786,0.12213740458015267,-0.022900763358778626
1.9881655883789064,2.8764184570312503,-0.7487429809570313,0.5343511450381679,0.29770992366412213,1.2442748091603053
1.213077392578125,5.007087707519531,1.112486572265625,1.2671755725190839,0.9389312977099237,2.404580152671756
-1.586700439453125,4.111350402832032,1.89446044921875,-0.3282442748091603,0.6946564885496183,2.3206106870229006
0.0796343994140625,-0.11406280517578125,-0.041613464355468754,-0.33587786259541985,0.05343511450381679,1.0229007633587786
0.9756710815429688,-2.8374993896484377,-0.047900390625000004,0.366412213740458,0.4961832061068702,-1.0610687022900762
-0.23501129150390626,2.971919860839844,1.4926959228515626,0.4580152671755725,-0.022900763358778626,-2.1068702290076335
0.9277706909179688,4.566703491210938,0.6604266357421875,-0.4351145038167939,-0.2748091603053435,-2.0229007633587783
2.961441650390625,3.714375915527344,1.2475057983398439,-0.2595419847328244,-0.5419847328244275,-1.099236641221374
2.973416748046875,1.3058843994140625,-0.43888732910156253,0.37404580152671757,-0.16030534351145037,0.6335877862595419
1.8339862060546877,3.773053894042969,1.7585430908203126,0.9770992366412213,0.015267175572519083,1.7709923664122136
-1.9372714233398438,4.50503173828125,2.6438021850585938,0.33587786259541985,0.3129770992366412,2.786259541984733
-0.63468017578125,1.3663586425781251,0.6700067138671876,-0.4809160305343511,0.1450381679389313,1.1221374045801527
0.8427474975585938,-1.2888198852539063,0.09669891357421875,0.10687022900763359,0.34351145038167935,-0.6641221374045801
0.7206015014648438,1.4415023803710938,0.9163943481445312,0.26717557251908397,0.34351145038167935,-1.900763358778626
0.8283773803710938,3.612587585449219,1.7477655029296877,0.26717557251908397,0.33587786259541985,-2.648854961832061
1.9246975708007814,1.9953506469726563,1.6004718017578126,0.4580152671755725,0.6870229007633587,-1.5419847328244274
1.8079403686523439,0.683778076171875,1.16637451171875,0.5801526717557252,0.3129770992366412,-0.549618320610687
1.5822097778320314,-0.6571334838867188,1.5992742919921876,0.6793893129770993,0.25190839694656486,-0.11450381679389313
1.5151492309570314,-1.3992901611328126,1.3561798095703126,0.29770992366412213,-0.03816793893129771,0.08396946564885496
1.3663586425781251,-1.4340179443359375,1.02746337890625,0.10687022900763359,0.030534351145038167,-0.015267175572519083
1.24541015625,-1.2995974731445312,0.9436376953125001,0.0916030534351145,-0.007633587786259542,0.0
1.2558883666992189,-1.272653503417969,0.8253836059570313,0.17557251908396945,0.05343511450381679,-0.04580152671755725
1.21906494140625,-1.3846206665039062,0.6352789306640625,-0.13740458015267176,0.08396946564885496,0.05343511450381679
0.9265731811523438,-1.3861175537109376,0.7679031372070313,0.33587786259541985,-0.07633587786259542,0.061068702290076333
1.0319540405273437,-1.4615606689453127,0.5463638305664062,0.15267175572519084,-0.11450381679389313,-0.1297709923664122
0.8711883544921876,-1.3489947509765625,0.6583309936523438,0.0916030534351145,0.022900763358778626,0.11450381679389313
0.8855584716796876,-0.825084228515625,0.4763095092773438,-0.3893129770992366,-0.15267175572519084,-0.06870229007633588
0.8855584716796876,-0.825084228515625,0.4763095092773438,-0.3893129770992366,-0.15267175572519084,-0.06870229007633588
0.5622308349609375,-0.8253836059570313,0.46104125976562504,0.4809160305343511,-0.05343511450381679,0.19083969465648853
0.5622308349609375,-0.8253836059570313,0.46104125976562504,0.4809160305343511,-0.05343511450381679,0.19083969465648853
0.39398071289062503,-0.9678872680664063,0.3658392333984375,-0.3969465648854962,-0.007633587786259542,-0.05343511450381679
0.39398071289062503,-0.9678872680664063,0.3658392333984375,-0.3969465648854962,-0.007633587786259542,-0.05343511450381679
0.39398071289062503,-0.9678872680664063,0.3658392333984375,-0.3969465648854962,-0.007633587786259542,-0.05343511450381679
0.39398071289062503,-0.9678872680664063,0.3658392333984375,-0.3969465648854962,-0.007633587786259542,-0.05343511450381679
0.27722351074218754,-0.6086343383789062,-0.080233154296875,-0.7099236641221374,-0.2213740458015267,0.13740458015267176
0.1802252197265625,-0.07574249267578126,0.055085449218750006,0.648854961832061,0.061068702290076333,0.061068702290076333
0.1574725341796875,-0.8580157470703126,0.3715274047851563,0.366412213740458,0.06870229007633588,-0.0916030534351145
0.1574725341796875,-0.8580157470703126,0.3715274047851563,0.366412213740458,0.06870229007633588,-0.0916030534351145
0.25836273193359377,-0.6343807983398437,0.06855743408203126,-0.15267175572519084,-0.015267175572519083,-0.007633587786259542
0.18351837158203127,-0.3350033569335938,0.2724334716796875,-0.40458015267175573,0.030534351145038167,0.19083969465648853
-0.08562194824218751,-0.038020935058593754,0.4640350341796875,-0.6870229007633587,-0.549618320610687,-0.07633587786259542
-0.08562194824218751,-0.038020935058593754,0.4640350341796875,-0.6870229007633587,-0.549618320610687,-0.07633587786259542
-2.3519091796875,2.7390042114257813,2.77103759765625,-1.015267175572519,-1.0305343511450382,0.29770992366412213
-2.3519091796875,2.7390042114257813,2.77103759765625,-1.015267175572519,-1.0305343511450382,0.29770992366412213
2.245929565429688,3.3724868774414065,0.040415954589843754,-0.33587786259541985,0.20610687022900762,0.7480916030534351
2.245929565429688,3.3724868774414065,0.040415954589843754,-0.33587786259541985,0.20610687022900762,0.7480916030534351
0.3146456909179688,5.067262573242187,2.534828796386719,0.5343511450381679,0.7938931297709924,2.9541984732824424
-1.6998651123046875,2.6902056884765626,1.117276611328125,0.5267175572519084,-0.4809160305343511,1.648854961832061
-0.202379150390625,-4.025728454589844,0.168848876953125,0.08396946564885496,0.366412213740458,-0.6717557251908397
0.36254608154296875,1.799857177734375,1.5432907104492188,-0.030534351145038167,-0.22900763358778625,-1.9312977099236641
0.2544708251953125,4.3400747680664065,2.030677185058594,-0.19083969465648853,-0.25190839694656486,-2.633587786259542
3.127596130371094,4.482877807617188,2.2177880859375003,-0.07633587786259542,0.05343511450381679,-1.3358778625954197
3.127596130371094,4.482877807617188,2.2177880859375003,-0.07633587786259542,0.05343511450381679,-1.3358778625954197
1.5385006713867189,3.9143600463867188,2.459385681152344,1.9541984732824427,-1.0610687022900762,1.66412213740458
-2.4695645141601563,4.261637878417969,2.7620562744140624,0.5267175572519084,0.4580152671755725,2.9618320610687023
-1.9124230957031252,2.6120681762695312,0.5310955810546876,0.183206106870229,0.3282442748091603,1.5954198473282442
-0.45804748535156253,-1.5025753784179687,0.023351440429687502,0.061068702290076333,0.282442748091603,0.0
0.104183349609375,1.1597882080078126,1.597178649902344,0.2213740458015267,-0.29770992366412213,-2.236641221374046
1.0487191772460938,4.139791259765625,0.3972738647460938,-0.42748091603053434,0.4198473282442748,-2.7251908396946565
1.2801379394531252,2.757565612792969,1.1573931884765625,0.6412213740458015,0.6717557251908397,-1.916030534351145
1.362466735839844,0.5487588500976562,1.2639715576171875,0.6412213740458015,0.1984732824427481,-0.4961832061068702
1.5103591918945314,-0.683778076171875,1.4373110961914064,1.045801526717557,0.06870229007633588,0.07633587786259542
1.2981005859375,-1.610650634765625,1.6866925048828125,0.015267175572519083,-0.26717557251908397,0.20610687022900762
1.292113037109375,-1.665436706542969,1.1636801147460938,-0.05343511450381679,0.1297709923664122,-0.022900763358778626
1.1082952880859376,-1.5019766235351564,1.268162841796875,0.09923664122137404,0.007633587786259542,0.015267175572519083
1.0160870361328125,-1.4214440917968751,0.9538165283203125,-0.07633587786259542,0.0,0.05343511450381679
0.9864486694335938,-1.4459930419921876,1.1211685180664064,0.16030534351145037,0.12213740458015267,0.06870229007633588
0.6903643798828125,-1.2175680541992189,0.5577401733398438,0.015267175572519083,-0.0916030534351145,-0.0916030534351145
0.9175918579101563,-1.251098327636719,0.7780819702148438,0.23664122137404578,-0.1450381679389313,-0.09923664122137404
0.5673202514648438,-1.1451187133789062,0.7280859375000001,0.183206106870229,0.16793893129770993,0.007633587786259542
0.60114990234375,-0.6221063232421875,0.6212081909179688,-0.7938931297709924,-0.04580152671755725,0.10687022900763359
0.6658154296875001,-1.4160552978515626,0.12603790283203126,-0.061068702290076333,0.21374045801526717,-0.12213740458015267
0.46762756347656254,-0.4763095092773438,0.6110293579101563,0.19083969465648853,-0.15267175572519084,-0.015267175572519083
0.5164260864257812,-0.532891845703125,0.28410919189453127,0.07633587786259542,0.20610687022900762,0.1297709923664122
0.37122802734375004,-1.196312255859375,0.28979736328125,0.3053435114503817,-0.09923664122137404,-0.022900763358778626
0.367635498046875,-0.47720764160156254,0.33320709228515627,0.06870229007633588,-0.007633587786259542,-0.06870229007633588
0.32213012695312504,-0.8637039184570313,0.3023712158203125,-0.022900763358778626,0.05343511450381679,0.0
0.17633331298828125,-0.2963836669921875,0.2628533935546875,-0.2900763358778626,-0.030534351145038167,-0.1450381679389313
0.25237518310546875,-0.2915936279296875,0.13621673583984376,-0.1984732824427481,-0.16793893129770993,0.1297709923664122
0.1454974365234375,-0.3335064697265625,0.34518218994140626,0.46564885496183206,0.06870229007633588,-0.061068702290076333
-0.1023870849609375,-0.24938140869140626,0.7217990112304687,-0.07633587786259542,0.015267175572519083,0.22900763358778625
-0.65384033203125,-0.057779846191406255,1.5046710205078127,-0.3053435114503817,-0.1450381679389313,0.2595419847328244
-1.1253598022460938,0.7493417358398438,1.234333190917969,-0.46564885496183206,-0.48854961832061067,0.11450381679389313
-1.2469070434570313,1.8145266723632814,1.4271322631835939,-0.6641221374045801,-0.7022900763358778,0.0916030534351145
-0.02484832763671875,1.907633056640625,1.1205697631835938,-0.9236641221374046,-0.48854961832061067,-0.17557251908396945
1.5277230834960938,1.6621435546875,0.08532257080078126,-0.46564885496183206,0.08396946564885496,0.25190839694656486
1.886077880859375,5.426216125488281,1.6905844116210937,1.198473282442748,-0.4351145038167939,2.0229007633587783
0.23860382080078127,4.990921325683594,2.4507037353515626,0.5954198473282443,0.9312977099236641,3.129770992366412
-1.2502001953125002,3.785028991699219,2.5198599243164064,0.40458015267175573,-0.48854961832061067,1.984732824427481
-0.7206015014648438,-2.5997937011718752,-0.19249969482421875,-0.04580152671755725,0.40458015267175573,0.16793893129770993
0.259859619140625,-0.8942404174804688,1.1771520996093752,0.05343511450381679,-0.06870229007633588,-1.5877862595419847
1.593885498046875,3.913162536621094,1.8890716552734377,0.04580152671755725,-0.549618320610687,-2.427480916030534
3.129991149902344,4.453838195800781,1.1115884399414062,-0.8091603053435115,-0.549618320610687,-1.4809160305343512
2.864143981933594,0.6559359741210938,-0.7837701416015626,0.3053435114503817,-0.1297709923664122,0.41221374045801523
2.9126431274414064,3.8167630004882813,1.1765533447265626,1.9312977099236641,-0.05343511450381679,1.5190839694656488
-2.0627105712890628,4.348756713867187,1.7145346069335938,0.3282442748091603,0.9770992366412213,2.259541984732824
0.23531066894531252,-1.6462765502929688,0.5310955810546876,0.07633587786259542,0.24427480916030533,0.19083969465648853
1.2669653320312502,-0.8574169921875,0.9595046997070313,0.16793893129770993,-0.10687022900763359,-1.2900763358778626
0.348475341796875,1.6732205200195314,0.8493338012695313,-0.29770992366412213,-0.13740458015267176,-2.6030534351145036
-0.7873626708984376,3.809877319335938,1.2340338134765625,0.5190839694656488,-0.13740458015267176,-2.1068702290076335
0.30147308349609375,1.6432827758789064,0.4424798583984375,1.015267175572519,0.6564885496183206,-1.9694656488549618
1.6004718017578126,0.17333953857421877,1.4914984130859377,0.6259541984732824,0.3053435114503817,0.16030534351145037
1.6816030883789064,-0.9888436889648438,1.6313076782226563,0.22900763358778625,-0.007633587786259542,0.11450381679389313
1.5576608276367188,-1.4504837036132814,1.392703857421875,0.022900763358778626,-0.07633587786259542,0.09923664122137404
1.3642630004882814,-1.3744418334960937,1.1684701538085938,0.04580152671755725,-0.015267175572519083,0.022900763358778626
1.282532958984375,-1.3594729614257812,1.0023156738281251,0.0,-0.030534351145038167,0.007633587786259542
1.1708651733398439,-1.1603869628906252,0.9307644653320313,0.05343511450381679,0.022900763358778626,-0.022900763358778626
1.0505154418945313,-0.9391470336914063,0.6750961303710938,-0.13740458015267176,-0.04580152671755725,0.05343511450381679
0.920885009765625,-0.8966354370117188,0.4017645263671875,-0.16030534351145037,0.12213740458015267,-0.05343511450381679
0.9427395629882813,-0.7876620483398438,0.38080810546875005,0.1297709923664122,0.022900763358778626,-0.061068702290076333
1.0636880493164063,-0.7137158203125,0.5825885009765626,0.3129770992366412,0.015267175572519083,0.0916030534351145
0.42302032470703127,-1.0747650146484375,0.49337402343750003,0.282442748091603,0.015267175572519083,-0.10687022900763359
0.664617919921875,-0.71611083984375,0.2700384521484375,-0.3969465648854962,-0.33587786259541985,0.13740458015267176
0.5727090454101563,-1.2720547485351563,0.5128335571289063,0.4198473282442748,0.10687022900763359,-0.26717557251908397
0.49217651367187504,-0.7421566772460938,0.36314483642578127,0.21374045801526717,-0.06870229007633588,0.03816793893129771
0.2700384521484375,-0.5700146484375,0.5996530151367188,-0.3511450381679389,0.10687022900763359,0.1450381679389313
0.40356079101562503,-0.6673123168945313,0.13711486816406251,0.21374045801526717,0.022900763358778626,-0.15267175572519084
0.31105316162109375,-0.3595523071289063,0.41284149169921874,0.26717557251908397,-0.030534351145038167,-0.015267175572519083
0.2625540161132813,-0.6735992431640625,0.3335064697265625,-0.2748091603053435,0.07633587786259542,0.05343511450381679
0.17124389648437502,-0.12214599609375,0.30985565185546876,-0.47328244274809156,0.0916030534351145,-0.2213740458015267
0.30835876464843753,0.1850152587890625,0.19040405273437502,-0.5419847328244275,-0.183206106870229,0.061068702290076333
0.32781829833984377,-0.4017645263671875,0.42840911865234377,0.23664122137404578,0.15267175572519084,-0.282442748091603
0.08831634521484376,0.137713623046875,0.3074606323242188,0.4427480916030534,-0.07633587786259542,0.10687022900763359
0.16495697021484376,-0.3065625,0.3541635131835938,0.007633587786259542,-0.07633587786259542,0.16030534351145037
0.17453704833984376,-0.20058288574218752,0.277822265625,-0.10687022900763359,0.0916030534351145,-0.030534351145038167
-0.45295806884765627,0.4667294311523438,1.1708651733398439,-0.4198473282442748,-0.16030534351145037,0.37404580152671757
-1.6277151489257813,1.093326416015625,2.4270529174804687,-0.282442748091603,-0.3969465648854962,1.129770992366412
-0.30716125488281254,3.413800964355469,1.0642868041992188,-0.9847328244274809,-0.6259541984732824,0.37404580152671757
2.7497817993164064,2.2576052856445314,-1.7396823120117189,-0.3511450381679389,0.3282442748091603,0.4809160305343511
3.3688943481445315,3.546724548339844,-0.199984130859375,1.0,0.35877862595419846,1.4580152671755724
1.2289443969726563,4.009262695312501,1.1849359130859376,0.030534351145038167,1.4580152671755724,2.427480916030534
0.5864804077148438,1.1382330322265626,-0.5918692016601563,-0.29770992366412213,0.8549618320610687,1.3969465648854962
1.009500732421875,-2.4034020996093752,0.18920654296875,-0.11450381679389313,0.2595419847328244,-0.2595419847328244
0.3296145629882813,-0.18561401367187502,0.16585510253906252,0.5572519083969465,-0.8473282442748091,-1.6335877862595418
0.11316467285156251,3.429368591308594,-0.4805007934570313,0.3282442748091603,-1.2519083969465647,-2.5114503816793894
2.8096572875976564,4.071233825683594,0.7307803344726563,-0.6259541984732824,-0.3969465648854962,-1.7099236641221374
3.6973114013671875,2.1279748535156253,-0.49247589111328127,-0.48854961832061067,-0.22900763358778625,-0.46564885496183206
3.057541809082031,0.30446685791015626,-0.35685791015625,0.5038167938931297,-0.1450381679389313,0.8167938931297709
3.170706481933594,3.5296600341796878,0.6274951171875001,1.2748091603053435,-0.04580152671755725,1.83206106870229
-1.4055770874023439,4.299958190917969,0.6373745727539063,0.5267175572519084,1.4045801526717556,2.404580152671756
-0.38769378662109377,1.6522640991210937,-0.47451324462890626,-0.1450381679389313,0.9465648854961831,1.16793893129771
1.1169772338867188,-1.4271322631835939,0.23740631103515628,0.0,0.24427480916030533,-0.21374045801526717
0.9669891357421876,0.6607260131835938,0.21555175781250002,0.282442748091603,-0.45038167938931295,-2.1297709923664123
-1.1831396484375,3.2036380004882816,0.42691223144531254,0.4351145038167939,-0.5267175572519084,-2.49618320610687
1.1678713989257814,2.9021649169921875,0.487386474609375,-0.0916030534351145,0.5038167938931297,-1.3206106870229006
1.4373110961914064,0.959205322265625,1.7289047241210938,0.1984732824427481,0.03816793893129771,-0.2595419847328244
1.5597564697265627,-0.9942324829101563,1.3001962280273438,0.45038167938931295,-0.10687022900763359,0.022900763358778626
1.4220428466796875,-1.222657470703125,0.987945556640625,0.4351145038167939,0.16793893129770993,0.03816793893129771
1.1585906982421876,-1.47772705078125,1.1097921752929687,-0.030534351145038167,0.03816793893129771,0.10687022900763359
1.1241622924804688,-1.5355068969726564,1.0014175415039064,0.061068702290076333,0.030534351145038167,0.0
1.0490185546875002,-1.1876303100585939,0.8619076538085938,-0.015267175572519083,0.022900763358778626,0.0
1.0157876586914063,-0.9828561401367188,0.6316864013671876,-0.04580152671755725,-0.022900763358778626,-0.015267175572519083
0.8511300659179688,-0.7999365234375,0.48798522949218753,-0.04580152671755725,0.007633587786259542,0.007633587786259542
0.846639404296875,-0.69695068359375,0.33769775390625,-0.1450381679389313,0.04580152671755725,-0.03816793893129771
0.9169931030273438,-0.6520440673828125,0.23531066894531252,-0.06870229007633588,0.030534351145038167,0.12213740458015267
0.9169931030273438,-0.6520440673828125,0.23531066894531252,-0.06870229007633588,0.030534351145038167,0.12213740458015267
0.6756948852539063,-0.6493496704101562,0.16136444091796875,0.21374045801526717,-0.04580152671755725,-0.022900763358778626
0.5751040649414063,-0.889749755859375,0.23980133056640626,0.030534351145038167,-0.0916030534351145,-0.05343511450381679
0.5751040649414063,-0.889749755859375,0.23980133056640626,0.030534351145038167,-0.0916030534351145,-0.05343511450381679
0.5751040649414063,-0.889749755859375,0.23980133056640626,0.030534351145038167,-0.0916030534351145,-0.05343511450381679
0.4029620361328125,-0.9636959838867188,0.14340179443359377,0.0,-0.03816793893129771,0.007633587786259542
0.21644989013671875,-0.8265811157226562,0.12274475097656251,0.6259541984732824,0.030534351145038167,0.11450381679389313
0.11226654052734375,-0.9720785522460939,0.3906875610351563,-0.3282442748091603,-0.03816793893129771,0.03816793893129771
0.11226654052734375,-0.9720785522460939,0.3906875610351563,-0.3282442748091603,-0.03816793893129771,0.03816793893129771
0.13561798095703126,-0.9598040771484375,0.2628533935546875,0.04580152671755725,-0.015267175572519083,0.0916030534351145
0.124541015625,-0.564027099609375,0.2532733154296875,-0.09923664122137404,0.17557251908396945,-0.12213740458015267
0.124541015625,-0.564027099609375,0.2532733154296875,-0.09923664122137404,0.17557251908396945,-0.12213740458015267
0.22273681640625,-0.6242019653320313,-0.038020935058593754,-0.5267175572519084,-0.06870229007633588,0.022900763358778626
0.02005828857421875,-0.11166778564453125,0.3526666259765625,0.08396946564885496,0.0916030534351145,0.16793893129770993
0.02005828857421875,-0.11166778564453125,0.3526666259765625,0.08396946564885496,0.0916030534351145,0.16793893129770993
-0.28021728515625,-0.07753875732421875,0.3541635131835938,0.030534351145038167,-0.5267175572519084,-0.282442748091603
-0.28021728515625,-0.07753875732421875,0.3541635131835938,0.030534351145038167,-0.5267175572519084,-0.282442748091603
-0.28021728515625,-0.07753875732421875,0.3541635131835938,0.030534351145038167,-0.5267175572519084,-0.282442748091603
-0.9289682006835938,-0.4290078735351563,2.2231768798828124,0.19083969465648853,0.2900763358778626,0.5801526717557252
-0.9289682006835938,-0.4290078735351563,2.2231768798828124,0.19083969465648853,0.2900763358778626,0.5801526717557252
1.5438894653320314,2.0315753173828126,-1.1852352905273438,-1.3740458015267174,0.007633587786259542,0.0
1.5438894653320314,2.0315753173828126,-1.1852352905273438,-1.3740458015267174,0.007633587786259542,0.0
-0.35206787109375004,4.39007080078125,-0.8762777709960938,0.22900763358778625,2.0381679389312977,2.709923664122137
-0.9499246215820313,2.4189697265625,0.147293701171875,-0.11450381679389313,0.8244274809160305,1.9541984732824427
0.71132080078125,-3.731141052246094,0.19579284667968752,0.16030534351145037,0.21374045801526717,-0.12213740458015267
0.26914031982421877,-1.6696279907226563,1.3157638549804689,0.5038167938931297,-0.25190839694656486,-1.8396946564885495
-1.1990066528320313,4.301754455566407,0.566422119140625,0.34351145038167935,-1.6106870229007633,-2.236641221374046
2.356399841308594,5.180427246093751,0.7071295166015625,-0.6717557251908397,-0.25190839694656486,-1.3740458015267174
3.382665710449219,1.7055532836914062,-0.11226654052734375,0.2900763358778626,-0.3282442748091603,0.3969465648854962
1.9752923583984376,1.6645385742187502,-0.8331674194335938,1.4885496183206106,-0.37404580152671757,1.129770992366412
0.09819580078125001,3.6113900756835937,0.652642822265625,0.282442748091603,1.748091603053435,2.236641221374046
-1.7043557739257813,3.17340087890625,-0.3523672485351563,-0.022900763358778626,0.8015267175572519,1.8702290076335877
0.27572662353515626,-0.9376501464843751,0.22602996826171876,0.16793893129770993,0.34351145038167935,0.7175572519083969
1.0109976196289063,-2.2507196044921876,0.7978408813476563,0.03816793893129771,0.015267175572519083,-0.7862595419847328
0.271834716796875,0.5894741821289062,1.2496014404296876,-0.13740458015267176,-0.5725190839694656,-2.2900763358778624
-0.21644989013671875,3.9820193481445316,1.084644470214844,0.25190839694656486,-0.32061068702290074,-2.7022900763358777
0.9780661010742188,2.06690185546875,0.7457492065429688,0.3511450381679389,1.2442748091603053,-1.9389312977099236
1.3349240112304688,0.81670166015625,1.5594570922851563,1.0,-0.11450381679389313,-0.04580152671755725
1.6660354614257813,-0.8963360595703126,1.5226336669921876,0.6641221374045801,0.015267175572519083,0.04580152671755725
1.389111328125,-1.3319302368164063,1.4938934326171875,0.2748091603053435,-0.022900763358778626,0.05343511450381679
1.1373348999023438,-1.4298266601562502,1.3498928833007813,0.061068702290076333,-0.04580152671755725,0.022900763358778626
1.0475216674804688,-1.2645703125,1.0538085937500001,-0.015267175572519083,0.007633587786259542,-0.030534351145038167
0.985550537109375,-1.1133847045898437,0.76880126953125,0.06870229007633588,0.022900763358778626,-0.061068702290076333
1.0373428344726563,-1.028660888671875,0.6951544189453125,-0.183206106870229,0.1984732824427481,0.022900763358778626
0.5331912231445313,-1.0343490600585938,0.9397457885742188,0.29770992366412213,-0.05343511450381679,-0.015267175572519083
0.9271719360351564,-0.9666897583007813,0.6104306030273438,0.0,-0.007633587786259542,-0.04580152671755725
0.5876779174804688,-0.8032296752929687,0.30386810302734374,0.022900763358778626,0.06870229007633588,-0.07633587786259542
0.8343649291992188,-0.5493576049804688,0.6472540283203125,-0.3053435114503817,-0.007633587786259542,0.007633587786259542
0.73048095703125,-1.0112969970703125,0.21644989013671875,0.20610687022900762,-0.0916030534351145,0.04580152671755725
0.43768981933593754,-0.7397616577148438,0.44457550048828126,-0.03816793893129771,0.05343511450381679,-0.022900763358778626
0.5864804077148438,-0.8152047729492188,0.5960604858398438,1.045801526717557,-0.007633587786259542,0.015267175572519083
0.37122802734375004,-0.8523275756835937,0.33560211181640626,-0.4198473282442748,0.1450381679389313,0.1450381679389313
0.3658392333984375,-0.8930429077148438,0.22483245849609376,0.2748091603053435,-0.1297709923664122,-0.10687022900763359
0.33560211181640626,-0.6122268676757813,0.3511697387695313,0.183206106870229,-0.08396946564885496,-0.06870229007633588
0.30446685791015626,-0.925675048828125,0.26494903564453126,-0.09923664122137404,0.030534351145038167,0.0
0.0389190673828125,-0.4520599365234375,0.24189697265625001,-0.15267175572519084,-0.022900763358778626,-0.16030534351145037
0.28830047607421877,0.045205993652343755,0.17513580322265626,-0.8167938931297709,-0.2213740458015267,-0.015267175572519083
0.19728973388671875,-0.49247589111328127,0.465831298828125,0.83206106870229,0.030534351145038167,-0.1450381679389313
0.08562194824218751,-0.35775604248046877,0.23650817871093752,0.030534351145038167,0.030534351145038167,0.11450381679389313
0.23231689453125,-0.3787124633789063,0.1383123779296875,-0.13740458015267176,-0.030534351145038167,-0.05343511450381679
0.11316467285156251,-0.2484832763671875,0.14998809814453126,0.17557251908396945,-0.0916030534351145,0.0
0.0335302734375,-0.4577481079101563,-0.00987945556640625,0.015267175572519083,0.03816793893129771,0.022900763358778626
-1.1178753662109375,0.02125579833984375,1.6241226196289062,-0.48854961832061067,-0.061068702290076333,0.6946564885496183
-2.270179138183594,2.2210812377929687,2.2447320556640626,-0.9312977099236641,-1.3587786259541985,0.46564885496183206
0.5727090454101563,3.340453491210938,-0.23590942382812502,-1.1068702290076335,-0.4809160305343511,0.015267175572519083
2.1076171875000003,2.9530590820312503,-2.130369873046875,0.6946564885496183,0.7480916030534351,1.1221374045801527
1.2840298461914064,4.908293151855469,0.566422119140625,1.3435114503816794,1.213740458015267,2.1221374045801524
-1.5977774047851563,3.5796560668945316,-0.3541635131835938,-0.04580152671755725,1.381679389312977,2.4885496183206106
-0.24638763427734375,-1.419049072265625,0.6475534057617188,-0.04580152671755725,0.7480916030534351,1.0
0.5382806396484375,-3.5554064941406254,1.4645544433593751,0.10687022900763359,-0.1450381679389313,-0.6717557251908397
-0.13861175537109377,0.7550299072265625,0.6433621215820313,-0.16030534351145037,-1.297709923664122,-2.1526717557251906
-1.2136761474609377,4.241280212402344,-0.052690429687500005,-0.20610687022900762,-0.7099236641221374,-2.541984732824427
2.2902374267578125,4.888833618164063,0.9334588623046876,-0.25190839694656486,-0.10687022900763359,-1.4045801526717556
3.9272332763671876,2.218686218261719,0.47601013183593754,-0.030534351145038167,-0.41221374045801523,-0.09923664122137404
2.526446228027344,3.143463134765625,-0.024548950195312502,0.9389312977099237,-0.08396946564885496,1.3358778625954197
-2.0327728271484378,4.002377014160157,0.6436614990234375,0.41221374045801523,1.4732824427480915,2.732824427480916
-2.634820861816406,3.5356475830078127,0.08771759033203125,0.24427480916030533,0.9389312977099237,2.2442748091603053
-0.178428955078125,-1.9130218505859375,0.6514453125,0.06870229007633588,0.061068702290076333,0.4809160305343511
0.7008425903320313,-0.6996450805664063,1.4459930419921876,0.16793893129770993,-0.3511450381679389,-1.7938931297709924
0.1035845947265625,3.4646951293945314,0.477806396484375,0.4351145038167939,-0.5954198473282443,-2.5267175572519083
-0.19699035644531251,3.406915283203125,0.09669891357421875,0.6641221374045801,-0.33587786259541985,-2.3435114503816794
1.0041119384765627,1.3998889160156252,1.1523037719726563,0.35877862595419846,0.5801526717557252,-0.9465648854961831
1.4187496948242189,0.04999603271484375,1.3394146728515626,0.8625954198473282,0.25190839694656486,-0.15267175572519084
1.6426840209960938,-1.1558963012695314,1.5393988037109376,0.648854961832061,-0.05343511450381679,0.12213740458015267
1.4935940551757814,-1.7202227783203126,1.6564553833007813,0.09923664122137404,-0.09923664122137404,0.030534351145038167
1.4076727294921876,-1.543590087890625,1.1454180908203127,-0.04580152671755725,0.05343511450381679,-0.007633587786259542
1.3211526489257812,-1.4813195800781251,0.9259744262695313,0.015267175572519083,0.0,-0.015267175572519083
1.2121792602539063,-1.3690530395507814,0.8762777709960938,-0.030534351145038167,0.007633587786259542,-0.007633587786259542
1.114881591796875,-1.1885284423828126,0.6059399414062501,-0.007633587786259542,0.007633587786259542,-0.007633587786259542
1.0080038452148439,-1.0648855590820312,0.5415737915039063,-0.04580152671755725,-0.015267175572519083,-0.015267175572519083
0.9011260986328126,-0.8511300659179688,0.3445834350585938,-0.09923664122137404,0.03816793893129771,0.007633587786259542
0.9223818969726563,-0.7487429809570313,0.28740234375,-0.05343511450381679,-0.015267175572519083,0.10687022900763359
0.6547384643554688,-0.6535409545898437,0.28291168212890627,0.06870229007633588,-0.022900763358778626,0.05343511450381679
0.5733078002929688,-0.8190966796875,0.14130615234375002,0.007633587786259542,-0.0916030534351145,-0.11450381679389313
0.7526348876953125,-0.444276123046875,0.26075775146484376,0.20610687022900762,0.11450381679389313,0.061068702290076333
0.20836669921875,-0.38080810546875005,0.3320095825195313,0.022900763358778626,0.0,-0.12213740458015267
0.5601351928710938,-0.51971923828125,0.11585906982421876,-0.6259541984732824,-0.24427480916030533,0.05343511450381679
0.3706292724609375,-0.47870452880859377,0.2424957275390625,0.07633587786259542,0.1450381679389313,-0.04580152671755725
0.4098477172851563,-0.26435028076171874,0.33859588623046877,0.6030534351145038,-0.015267175572519083,-0.015267175572519083
0.2604583740234375,-0.3008743286132813,0.2966830444335938,-0.16030534351145037,0.06870229007633588,0.09923664122137404
0.24578887939453126,-0.2547702026367188,0.23920257568359377,0.07633587786259542,-0.007633587786259542,-0.061068702290076333
0.20597167968750002,0.09849517822265626,0.2664459228515625,0.04580152671755725,0.022900763358778626,-0.05343511450381679
0.1167572021484375,-0.288599853515625,0.20178039550781252,-0.10687022900763359,-0.015267175572519083,0.0916030534351145
-0.057779846191406255,0.025147705078125002,0.3020718383789063,0.0,0.07633587786259542,-0.12213740458015267
0.17872833251953127,-0.0143701171875,0.21585113525390626,-0.32061068702290074,-0.16030534351145037,-0.05343511450381679
0.197589111328125,-0.3649411010742188,0.3894900512695313,0.183206106870229,0.030534351145038167,-0.12213740458015267
0.10687774658203125,-0.484991455078125,0.22782623291015627,0.7938931297709924,0.05343511450381679,0.015267175572519083
0.11346405029296876,-0.8376580810546875,0.5535488891601563,0.11450381679389313,0.0,0.05343511450381679
0.1586700439453125,-0.7834707641601563,0.25417144775390627,-0.08396946564885496,0.04580152671755725,-0.022900763358778626
0.0814306640625,-0.6137237548828125,0.30446685791015626,0.007633587786259542,-0.05343511450381679,-0.015267175572519083
-0.5454656982421875,-0.667012939453125,1.7079483032226563,0.0,-0.04580152671755725,0.6335877862595419
-2.391127624511719,2.08845703125,1.99265625,-0.45038167938931295,-1.1908396946564885,0.366412213740458
0.9705816650390625,2.7090664672851563,-2.2438339233398437,-1.2671755725190839,-0.282442748091603,-0.05343511450381679
1.926793212890625,3.7272491455078125,-3.1500494384765627,0.42748091603053434,0.8702290076335878,1.3282442748091603
0.42870849609375,4.9038024902343755,-0.7002438354492188,1.0076335877862594,1.6946564885496183,2.3587786259541983
-2.22018310546875,3.3629067993164066,0.29937744140625,-0.183206106870229,1.16793893129771,2.3206106870229006
-0.4712200927734375,-2.3519091796875,0.7682025146484376,0.11450381679389313,0.20610687022900762,0.83206106870229
0.42152343750000004,-4.020639038085938,1.1660751342773439,-0.11450381679389313,0.4961832061068702,-1.045801526717557
-0.39248382568359375,3.6380346679687503,0.5876779174804688,0.6412213740458015,-1.3511450381679388,-2.2442748091603053
2.4474105834960938,4.7891409301757815,-0.013771362304687501,-0.5267175572519084,-0.22900763358778625,-1.8625954198473282
3.859573974609375,3.440445556640625,0.45834686279296877,-0.3282442748091603,-0.4198473282442748,-0.5114503816793893
3.171903991699219,0.9460327148437501,-0.9969268798828126,0.6641221374045801,-0.38167938931297707,0.4961832061068702
2.1809646606445314,3.50630859375,0.4589456176757813,1.2748091603053435,0.3511450381679389,0.9236641221374046
-2.8252249145507813,3.9963894653320313,0.8053253173828125,0.282442748091603,0.6793893129770993,2.427480916030534
-0.9274713134765625,-0.4834945678710938,0.29189300537109375,-0.061068702290076333,0.26717557251908397,1.0763358778625953
0.7250921630859375,-2.8063641357421876,0.4903802490234375,-0.1984732824427481,0.24427480916030533,-0.4427480916030534
0.961600341796875,0.058677978515625,0.2568658447265625,-0.4198473282442748,-0.03816793893129771,-1.9389312977099236
0.961600341796875,0.058677978515625,0.2568658447265625,-0.4198473282442748,-0.03816793893129771,-1.9389312977099236
-0.35865417480468753,2.4731570434570314,0.7571255493164063,0.6335877862595419,-0.42748091603053434,-1.7404580152671756
1.1666738891601562,0.8999285888671875,0.6822811889648438,0.5801526717557252,0.4580152671755725,-0.8015267175572519
1.1666738891601562,0.8999285888671875,0.6822811889648438,0.5801526717557252,0.4580152671755725,-0.8015267175572519
1.387913818359375,-1.45856689453125,1.8025515747070313,0.8396946564885496,-0.007633587786259542,0.37404580152671757
1.3061837768554687,-1.8073416137695313,1.5666421508789063,-0.015267175572519083,0.15267175572519084,0.030534351145038167
1.1903247070312502,-1.555565185546875,1.2208612060546875,-0.022900763358778626,-0.030534351145038167,-0.08396946564885496
1.1903247070312502,-1.555565185546875,1.2208612060546875,-0.022900763358778626,-0.030534351145038167,-0.08396946564885496
1.08494384765625,-1.182840270996094,0.865799560546875,-0.183206106870229,0.06870229007633588,0.022900763358778626
1.08494384765625,-1.182840270996094,0.865799560546875,-0.183206106870229,0.06870229007633588,0.022900763358778626
0.9370513916015626,-0.9972262573242188,0.5068460083007813,-0.03816793893129771,-0.007633587786259542,-0.007633587786259542
0.8499325561523438,-0.8984317016601563,0.36703674316406254,-0.061068702290076333,0.022900763358778626,-0.007633587786259542
0.8499325561523438,-0.8984317016601563,0.36703674316406254,-0.061068702290076333,0.022900763358778626,-0.007633587786259542
0.7361691284179688,-0.7068301391601562,0.20088226318359376,0.022900763358778626,0.06870229007633588,-0.015267175572519083
0.7361691284179688,-0.7068301391601562,0.20088226318359376,0.022900763358778626,0.06870229007633588,-0.015267175572519083
0.8646020507812501,-0.6256988525390625,0.11795471191406251,0.16030534351145037,0.0,-0.03816793893129771
0.8646020507812501,-0.6256988525390625,0.11795471191406251,0.16030534351145037,0.0,-0.03816793893129771
0.8646020507812501,-0.6256988525390625,0.11795471191406251,0.16030534351145037,0.0,-0.03816793893129771
0.33171020507812504,-0.2484832763671875,-0.16615447998046876,0.20610687022900762,0.0,0.04580152671755725
0.33171020507812504,-0.2484832763671875,-0.16615447998046876,0.20610687022900762,0.0,0.04580152671755725
0.3065625,-0.36314483642578127,0.25626708984375,0.38167938931297707,0.12213740458015267,0.061068702290076333
0.3065625,-0.36314483642578127,0.25626708984375,0.38167938931297707,0.12213740458015267,0.061068702290076333
0.25806335449218754,-0.3020718383789063,-0.10448272705078125,-0.007633587786259542,0.03816793893129771,-0.0916030534351145
0.23261627197265627,-0.23381378173828127,0.1478924560546875,0.183206106870229,0.015267175572519083,0.03816793893129771
0.0975970458984375,-0.27153533935546875,0.05598358154296875,-0.17557251908396945,0.007633587786259542,-0.015267175572519083
0.12484039306640625,0.2697390747070313,0.17633331298828125,-0.5114503816793893,-0.13740458015267176,-0.15267175572519084
0.13921051025390627,-0.08652008056640625,0.11076965332031251,-0.2595419847328244,-0.10687022900763359,0.10687022900763359
0.08711883544921875,-0.00449066162109375,0.2775228881835938,0.8091603053435115,0.12213740458015267,-0.10687022900763359
0.01945953369140625,-0.17693206787109375,0.25836273193359377,0.4351145038167939,0.04580152671755725,0.061068702290076333
0.08891510009765625,-0.6457571411132813,0.3993695068359375,-0.04580152671755725,0.0916030534351145,0.09923664122137404
0.14879058837890627,-0.4400848388671875,0.15358062744140627,0.0,-0.11450381679389313,-0.09923664122137404
-1.1600875854492188,0.06676116943359375,1.7408798217773438,-0.2748091603053435,0.8091603053435115,0.7633587786259541
-3.0338909912109377,1.5858023071289062,0.6044430541992187,-0.5038167938931297,-1.4809160305343512,0.11450381679389313
0.6026467895507813,3.3120126342773437,-2.0935464477539063,-0.8473282442748091,-0.4580152671755725,-0.10687022900763359
1.756746826171875,4.0442898559570315,-2.348017272949219,0.4427480916030534,0.7480916030534351,1.2442748091603053
-3.023712158203125,5.266049194335938,-1.28373046875,0.13740458015267176,1.8549618320610686,2.541984732824427
-3.0036538696289066,3.3560211181640627,-0.17992584228515626,-0.10687022900763359,1.0610687022900762,2.465648854961832
-0.17453704833984376,-4.436174926757813,0.9148974609375,-0.1297709923664122,0.4427480916030534,0.26717557251908397
0.19639160156250002,-3.5221755981445315,1.7295034790039063,0.23664122137404578,0.10687022900763359,-1.5572519083969465
-1.6226257324218751,3.656596069335938,-0.2667453002929688,0.8625954198473282,-1.16793893129771,-2.4885496183206106
0.44158172607421875,5.565726013183594,0.5694158935546876,0.04580152671755725,-0.5343511450381679,-2.015267175572519
2.6764343261718753,3.8110748291015626,-0.28830047607421877,0.0,-0.37404580152671757,-0.5572519083969465
2.5378225708007816,1.8265017700195314,-0.7906558227539063,1.1908396946564885,0.21374045801526717,0.6717557251908397
0.42421783447265626,3.262914733886719,-1.2247531127929687,1.16793893129771,1.3358778625954197,1.6793893129770991
-4.333787841796875,2.7620562744140624,-4.5619134521484375,0.25190839694656486,2.854961832061069,1.7786259541984732
-2.7901977539062504,-1.1139834594726563,0.39787261962890624,-0.030534351145038167,1.816793893129771,0.4427480916030534
0.099393310546875,-3.986510009765625,3.1757958984375003,0.13740458015267176,-0.6335877862595419,-0.4580152671755725
-0.26914031982421877,-0.34099090576171875,-0.4685256958007813,-0.549618320610687,-2.015267175572519,-1.5190839694656488
0.7954458618164063,3.151546325683594,-3.6347415161132814,-1.1526717557251909,-1.3587786259541985,-2.198473282442748
1.0666818237304687,1.9977456665039064,-0.05358856201171875,0.4351145038167939,-0.3129770992366412,-1.4274809160305344
1.380728759765625,0.21704864501953125,1.1927197265625,0.7862595419847328,0.2748091603053435,-0.183206106870229
1.3489947509765625,-1.0627899169921875,1.6217276000976564,0.4351145038167939,0.022900763358778626,0.015267175572519083
1.159189453125,-1.5429913330078127,1.703757019042969,0.2748091603053435,-0.061068702290076333,0.015267175572519083
1.0463241577148439,-1.392703857421875,1.4609619140625,-0.0916030534351145,0.0,0.015267175572519083
0.9651928710937501,-1.3684542846679688,1.1717633056640626,0.022900763358778626,0.022900763358778626,-0.007633587786259542
0.9391470336914063,-1.3169613647460938,0.9762698364257812,0.022900763358778626,0.030534351145038167,-0.022900763358778626
0.8978329467773438,-1.2966036987304688,0.7466473388671876,0.19083969465648853,0.0,0.03816793893129771
0.7343728637695313,-1.1541000366210938,1.2672647094726563,-0.007633587786259542,0.007633587786259542,-0.08396946564885496
0.801134033203125,-1.2118798828125001,0.3059637451171875,-0.022900763358778626,-0.05343511450381679,-0.061068702290076333
0.7511380004882813,-0.8792715454101563,0.6143225097656251,0.061068702290076333,0.13740458015267176,0.04580152671755725
0.38769378662109377,-0.3299139404296875,0.46253814697265627,-0.5267175572519084,-0.16030534351145037,-0.1984732824427481
0.631087646484375,-1.1097921752929687,0.02005828857421875,-0.16030534351145037,-0.11450381679389313,0.04580152671755725
0.5071453857421875,-0.29728179931640625,0.42152343750000004,0.41221374045801523,0.05343511450381679,-0.022900763358778626
0.4125421142578125,-0.6256988525390625,0.5002597045898438,-0.007633587786259542,-0.022900763358778626,0.1297709923664122
0.3541635131835938,-0.5978567504882812,0.29309051513671874,-0.183206106870229,-0.015267175572519083,0.08396946564885496
0.3688330078125,-0.39248382568359375,0.20118164062500002,0.1297709923664122,0.015267175572519083,-0.03816793893129771
0.21076171875000002,-0.5610333251953126,0.3990701293945313,-0.07633587786259542,0.08396946564885496,0.022900763358778626
0.17513580322265626,-0.42032592773437505,0.26764343261718754,-0.12213740458015267,0.07633587786259542,-0.07633587786259542
0.28919860839843753,0.130528564453125,0.144898681640625,-0.33587786259541985,-0.030534351145038167,-0.13740458015267176
0.35895355224609377,-0.6625222778320313,0.032931518554687504,-0.1297709923664122,-0.022900763358778626,0.06870229007633588
0.20866607666015627,-0.08861572265625,0.15657440185546875,0.5572519083969465,0.1450381679389313,-0.03816793893129771
0.17663269042968752,-0.4876858520507813,0.29847930908203124,0.15267175572519084,-0.06870229007633588,0.06870229007633588
0.238304443359375,-0.6340814208984376,0.18112335205078126,-0.06870229007633588,0.061068702290076333,0.05343511450381679
0.116158447265625,-0.24668701171875002,0.5011578369140626,-0.4351145038167939,0.06870229007633588,-0.10687022900763359
-1.1187734985351563,-0.3658392333984375,2.355202331542969,0.12213740458015267,-0.5343511450381679,0.6259541984732824
-2.5812322998046877,2.0612136840820314,1.4519805908203125,-0.0916030534351145,-1.045801526717557,0.564885496183206
-0.4816983032226563,1.8013540649414064,-0.8020321655273438,-0.8091603053435115,-0.6641221374045801,0.1450381679389313
1.7055532836914062,0.43739044189453125,-3.327280883789063,-0.3282442748091603,0.6870229007633587,0.24427480916030533
0.8699908447265625,4.121529235839844,-3.131488037109375,1.0305343511450382,1.6106870229007633,1.282442748091603
-2.0890557861328127,3.5119967651367188,-4.545148315429688,0.12213740458015267,2.7938931297709924,2.015267175572519
-2.23934326171875,1.5022760009765626,-0.683778076171875,0.10687022900763359,1.3206106870229006,1.5877862595419847
-1.3642630004882814,-4.654421081542969,2.4264541625976563,-0.12213740458015267,0.549618320610687,-0.16793893129770993
-0.19429595947265627,0.8128097534179688,0.4071533203125,0.47328244274809156,-1.6564885496183206,-1.6946564885496183
-0.47331573486328127,3.250340881347656,-5.330714721679688,1.618320610687023,-2.3435114503816794,-0.8931297709923663
3.234473876953125,2.6830206298828125,-2.771336975097656,-0.17557251908396945,-1.2061068702290076,-0.6793893129770993
4.412524108886719,0.3661386108398438,-1.5822097778320314,-0.3511450381679389,-0.19083969465648853,-0.09923664122137404
4.05955810546875,0.6828799438476563,-2.484533386230469,0.7557251908396946,0.732824427480916,0.8473282442748091
-0.05239105224609375,2.471360778808594,-5.3492761230468755,0.5801526717557252,3.068702290076336,0.7404580152671756
-2.3546035766601565,-0.2293231201171875,-3.407514038085938,0.3511450381679389,2.3053435114503817,0.34351145038167935
-1.0325527954101563,-2.407892761230469,2.501298522949219,-0.22900763358778625,0.9465648854961831,0.07633587786259542
0.034727783203125,-1.9091299438476563,2.5441094970703126,0.030534351145038167,-1.5419847328244274,-0.7709923664122137
0.8963360595703126,1.8594332885742189,-2.8410919189453128,-0.916030534351145,-2.618320610687023,-1.2748091603053435
1.42024658203125,2.5845254516601566,-1.8250048828125,0.20610687022900762,-0.9770992366412213,-1.2748091603053435
1.6759149169921876,0.8029302978515626,-0.21076171875000002,0.648854961832061,-0.07633587786259542,-1.0610687022900762
1.7806970214843751,-0.16166381835937502,0.9011260986328126,0.7938931297709924,0.2213740458015267,-0.40458015267175573
1.648671569824219,-0.5469625854492188,1.9489471435546877,0.7709923664122137,0.13740458015267176,0.04580152671755725
1.37234619140625,-1.0106982421875002,0.5736071777343751,0.19083969465648853,0.16793893129770993,-0.07633587786259542
0.6747967529296875,-0.8448431396484375,0.43529479980468755,-0.3129770992366412,-0.022900763358778626,-0.11450381679389313
0.9822573852539063,-0.8448431396484375,0.15956817626953126,-0.5725190839694656,-0.35877862595419846,0.12213740458015267
0.8110134887695313,-0.7442523193359375,0.24129821777343752,0.916030534351145,0.23664122137404578,-0.24427480916030533
0.7140151977539063,-0.6041436767578126,0.4454736328125,0.08396946564885496,-0.05343511450381679,0.16030534351145037
0.5442681884765626,-0.827479248046875,0.33021331787109376,-0.47328244274809156,0.030534351145038167,0.20610687022900762
0.63228515625,-0.41284149169921874,0.15417938232421877,0.16030534351145037,0.03816793893129771,-0.1450381679389313
0.520916748046875,-0.37122802734375004,0.13412109375,0.022900763358778626,0.015267175572519083,0.022900763358778626
0.42002655029296876,-0.4843927001953125,0.16735198974609375,-0.015267175572519083,0.09923664122137404,-0.022900763358778626
0.42870849609375,-0.28949798583984376,0.044008483886718755,0.07633587786259542,-0.030534351145038167,-0.17557251908396945
0.43768981933593754,-0.39278320312500004,0.07035369873046875,-0.42748091603053434,-0.1450381679389313,0.16030534351145037
0.44337799072265627,-0.5631289672851563,-0.10538085937500001,0.7557251908396946,0.17557251908396945,-0.24427480916030533
0.0652642822265625,-0.17513580322265626,0.5517526245117188,-0.25190839694656486,-0.0916030534351145,0.3053435114503817
-0.15896942138671877,-0.32213012695312504,1.0391390991210938,0.061068702290076333,-0.5038167938931297,0.2213740458015267
-0.8436456298828126,-0.04101470947265625,1.2463082885742187,0.3053435114503817,-0.16030534351145037,0.4351145038167939
-1.7411791992187502,1.2008029174804689,2.0085232543945315,-0.183206106870229,-0.17557251908396945,0.5190839694656488
-1.7762063598632813,1.5013778686523438,-0.07334747314453126,-0.4427480916030534,-0.9694656488549618,0.6946564885496183
1.7028588867187502,0.9131011962890625,-2.908152465820313,-1.6793893129770991,-0.3282442748091603,0.1984732824427481
2.274969177246094,0.920885009765625,-3.303929443359375,0.8778625954198473,1.7786259541984732,0.9312977099236641
0.43828857421875,3.647315368652344,-5.5229150390625,1.3969465648854962,3.450381679389313,1.3587786259541985
-0.3035687255859375,0.44457550048828126,-2.9054580688476563,0.366412213740458,2.4351145038167936,-0.19083969465648853
-1.8537451171875001,-2.8824060058593752,3.529959411621094,-0.030534351145038167,0.7251908396946565,-0.4580152671755725
-1.4193484497070312,-1.6292120361328126,4.698429565429688,0.3893129770992366,-1.4274809160305344,-0.10687022900763359
0.05987548828125,0.10148895263671875,-2.885699157714844,0.564885496183206,-2.9389312977099236,0.6717557251908397
0.8128097534179688,0.748443603515625,-5.262756042480469,-0.3969465648854962,-2.49618320610687,-0.549618320610687
3.646417236328125,0.052989807128906254,-4.554129638671875,-0.3511450381679389,-1.3740458015267174,0.16793893129770993
5.0151708984375,-1.9803817749023438,-1.2723541259765625,-0.2213740458015267,0.03816793893129771,-0.22900763358778625
3.4718801879882815,-0.3059637451171875,-4.693938903808594,0.7480916030534351,1.6717557251908397,0.35877862595419846
-0.44876678466796877,0.20986358642578126,-4.254452819824219,0.17557251908396945,3.3435114503816794,-0.5267175572519084
-1.5226336669921876,-2.0615130615234376,-2.2941293334960937,0.3282442748091603,2.0763358778625953,-0.030534351145038167
-1.875000915527344,-2.0971389770507813,3.5808535766601564,-0.03816793893129771,0.648854961832061,-0.29770992366412213
-1.875000915527344,-2.0971389770507813,3.5808535766601564,-0.03816793893129771,0.648854961832061,-0.29770992366412213
1.447789306640625,-0.9421408081054689,-0.135318603515625,-1.6335877862595418,-2.8702290076335877,-1.3587786259541985
1.7792001342773438,3.400927734375,-2.3803500366210937,0.061068702290076333,-1.3587786259541985,-1.9618320610687021
1.7205221557617187,1.2466076660156251,-0.21016296386718752,3.541984732824427,-0.4580152671755725,0.8931297709923663
1.8312918090820314,-1.157991943359375,0.6744973754882813,0.4961832061068702,-0.4961832061068702,-0.07633587786259542
1.8312918090820314,-1.157991943359375,0.6744973754882813,0.4961832061068702,-0.4961832061068702,-0.07633587786259542
1.8312918090820314,-1.157991943359375,0.6744973754882813,0.4961832061068702,-0.4961832061068702,-0.07633587786259542
1.4340179443359375,-1.4917977905273438,1.3064831542968751,-0.22900763358778625,0.0,0.04580152671755725
1.4340179443359375,-1.4917977905273438,1.3064831542968751,-0.22900763358778625,0.0,0.04580152671755725
1.2157717895507814,-1.1639794921875,0.9406439208984375,-0.07633587786259542,-0.061068702290076333,-0.05343511450381679
1.2157717895507814,-1.1639794921875,0.9406439208984375,-0.07633587786259542,-0.061068702290076333,-0.05343511450381679
1.021475830078125,-0.7873626708984376,0.49247589111328127,-0.35877862595419846,0.05343511450381679,0.022900763358778626
1.021475830078125,-0.7873626708984376,0.49247589111328127,-0.35877862595419846,0.05343511450381679,0.022900763358778626
1.0169851684570312,-1.047821044921875,0.4260140991210938,-0.022900763358778626,-0.07633587786259542,0.04580152671755725
0.7559280395507812,-0.03263214111328125,0.11795471191406251,-0.061068702290076333,0.015267175572519083,0.08396946564885496
0.683778076171875,-0.5574407958984375,0.5676196289062501,0.06870229007633588,0.015267175572519083,0.05343511450381679
0.683778076171875,-0.5574407958984375,0.5676196289062501,0.06870229007633588,0.015267175572519083,0.05343511450381679
0.683778076171875,-0.5574407958984375,0.5676196289062501,0.06870229007633588,0.015267175572519083,0.05343511450381679
0.42032592773437505,-0.24998016357421876,0.25896148681640624,-0.08396946564885496,0.04580152671755725,0.0
0.42032592773437505,-0.24998016357421876,0.25896148681640624,-0.08396946564885496,0.04580152671755725,0.0
0.3852987670898438,-0.06735992431640625,0.11076965332031251,0.7404580152671756,-0.030534351145038167,-0.04580152671755725
0.2329156494140625,-0.45804748535156253,0.2547702026367188,-0.19083969465648853,0.015267175572519083,0.09923664122137404
0.27033782958984376,-0.6092330932617188,0.316142578125,-0.08396946564885496,0.06870229007633588,0.015267175572519083
0.27722351074218754,-0.12603790283203126,0.09909393310546875,0.061068702290076333,0.061068702290076333,-0.05343511450381679
-0.7182064819335938,0.0772393798828125,1.3885125732421875,-0.2213740458015267,-0.564885496183206,0.5572519083969465
-1.5995736694335938,0.9131011962890625,2.4995022583007813,0.13740458015267176,-0.2213740458015267,0.7251908396946565
-0.9157955932617188,3.4910403442382814,-1.0136920166015626,-1.8015267175572518,-0.9541984732824427,0.1450381679389313
1.2100836181640626,1.46335693359375,-2.9904812622070316,-0.5725190839694656,0.21374045801526717,0.25190839694656486
2.328857116699219,1.6013699340820313,-3.87274658203125,1.3740458015267174,1.6870229007633588,0.9847328244274809
0.44457550048828126,2.927911376953125,-5.281317443847657,0.4427480916030534,3.4122137404580153,0.22900763358778625
-1.7774038696289063,-0.7948471069335938,-1.5618521118164064,0.030534351145038167,2.213740458015267,0.06870229007633588
-1.482217712402344,-3.825744323730469,4.862787780761719,0.09923664122137404,-0.4961832061068702,-0.24427480916030533
-0.154478759765625,-0.27033782958984376,-0.944835205078125,-0.015267175572519083,-2.8702290076335877,-0.6717557251908397
1.0774594116210938,3.413501586914063,-5.371729431152344,0.08396946564885496,-1.9236641221374045,-0.9236641221374046
4.000580749511719,1.4486874389648439,-3.0302984619140627,-0.15267175572519084,-0.8549618320610687,-0.29770992366412213
3.3482373046875002,0.8023315429687501,-2.993475036621094,-0.07633587786259542,1.129770992366412,0.42748091603053434
-0.4029620361328125,2.5009991455078127,-5.311554565429688,0.22900763358778625,3.045801526717557,0.6030534351145038
-1.8336868286132812,-0.33320709228515627,-3.500021667480469,0.20610687022900762,2.427480916030534,0.5267175572519084
-1.0990145874023438,-2.86683837890625,2.341131591796875,-0.21374045801526717,0.9083969465648855,-0.07633587786259542
-0.19968475341796876,-2.7318191528320312,3.5592984008789066,0.16793893129770993,-1.2519083969465647,-0.3053435114503817
0.24608825683593752,0.74006103515625,-3.913162536621094,-0.5343511450381679,-2.778625954198473,-1.366412213740458
1.5414944458007813,1.0199789428710937,-0.41463775634765626,0.4351145038167939,-0.5038167938931297,-1.3893129770992365
1.7441729736328127,-0.0844244384765625,0.9205856323242188,0.42748091603053434,0.40458015267175573,-0.16030534351145037
1.7196240234375,-1.0795550537109375,1.5944842529296877,0.2213740458015267,-0.06870229007633588,0.183206106870229
1.683399353027344,-1.4558724975585937,1.4217434692382813,0.08396946564885496,0.022900763358778626,0.04580152671755725
1.5396981811523438,-1.5247293090820313,1.2020004272460938,0.17557251908396945,0.015267175572519083,0.04580152671755725
1.4456936645507814,-1.3912069702148437,0.81670166015625,0.022900763358778626,0.022900763358778626,-0.015267175572519083
1.3531860351562501,-1.292113037109375,0.6625222778320313,0.05343511450381679,0.022900763358778626,0.007633587786259542
1.3657598876953125,-1.2079879760742187,0.55564453125,-0.015267175572519083,0.030534351145038167,0.015267175572519083
1.2828323364257812,-1.2034973144531251,0.434696044921875,-0.04580152671755725,0.030534351145038167,0.03816793893129771
1.0241702270507813,-1.0792556762695313,0.22722747802734375,0.030534351145038167,-0.022900763358778626,-0.007633587786259542
1.1894265747070314,-1.0750643920898437,0.0724493408203125,0.16030534351145037,-0.030534351145038167,-0.022900763358778626
1.0394384765625,-0.89813232421875,0.2859054565429688,-0.0916030534351145,0.0916030534351145,0.007633587786259542
0.7098239135742188,-0.540076904296875,-0.00987945556640625,-0.4427480916030534,-0.04580152671755725,-0.03816793893129771
0.880169677734375,-0.9382489013671875,-0.16854949951171877,0.06870229007633588,-0.15267175572519084,0.06870229007633588
0.5783972167968751,-0.5945635986328125,0.20806732177734377,0.8244274809160305,0.015267175572519083,-0.16793893129770993
0.6140231323242188,-0.8786727905273438,-0.14160552978515625,0.4961832061068702,0.04580152671755725,0.022900763358778626
0.42810974121093753,-1.1298504638671876,0.1197509765625,-0.09923664122137404,0.022900763358778626,0.21374045801526717
0.44038421630859376,-0.7924520874023437,0.010777587890625,0.030534351145038167,-0.04580152671755725,-0.1450381679389313
0.3263214111328125,-0.6316864013671876,-0.09011260986328125,-0.29770992366412213,0.061068702290076333,0.0916030534351145
0.40116577148437504,-0.6188131713867188,-0.02544708251953125,-0.07633587786259542,0.06870229007633588,-0.0916030534351145
0.39787261962890624,-0.028141479492187503,-0.24938140869140626,-0.5343511450381679,0.007633587786259542,-0.13740458015267176
0.33260833740234375,-0.16735198974609375,-0.08711883544921875,-0.2900763358778626,-0.11450381679389313,0.2748091603053435
0.28979736328125,0.08711883544921875,-0.183218994140625,0.35877862595419846,-0.015267175572519083,-0.015267175572519083
0.3335064697265625,-0.20447479248046876,-0.1730401611328125,0.45038167938931295,0.10687022900763359,0.022900763358778626
0.3203338623046875,-0.4831951904296875,-0.19549346923828126,-0.061068702290076333,0.0,0.030534351145038167
0.27542724609375,-0.17333953857421877,-0.3894900512695313,-0.10687022900763359,0.04580152671755725,0.022900763358778626
-0.2568658447265625,0.1167572021484375,0.5751040649414063,-0.2900763358778626,-0.23664122137404578,0.2900763358778626
-3.2482452392578125,1.5271243286132814,2.321971435546875,-0.2900763358778626,-1.2061068702290076,0.6564885496183206
-0.42661285400390625,2.8348049926757812,-2.4108865356445315,-1.015267175572519,-0.6335877862595419,-0.007633587786259542
2.6464965820312503,1.5019766235351564,-5.347779235839844,0.41221374045801523,1.549618320610687,0.5877862595419847
-0.28021728515625,4.764891357421876,-4.1676333618164065,0.83206106870229,2.778625954198473,1.4885496183206106
-2.030677185058594,3.3751812744140626,-4.326902160644531,-0.16030534351145037,3.129770992366412,1.0610687022900762
-2.292632446289063,-3.4802627563476562,1.8256036376953126,-0.06870229007633588,1.1526717557251909,0.37404580152671757
-0.906514892578125,-2.844085693359375,4.983137512207032,0.3893129770992366,-1.0534351145038168,-0.648854961832061
0.27872039794921877,1.5606546020507814,-2.8623477172851564,0.3053435114503817,-2.6564885496183206,-0.7633587786259541
-0.31763946533203125,2.795885925292969,-5.938450927734375,0.2748091603053435,-2.4580152671755724,-0.8854961832061068
1.9953506469726563,1.981579284667969,-4.471800842285156,0.26717557251908397,-1.465648854961832,-0.10687022900763359
3.510799255371094,-0.4496649169921875,-2.5641677856445315,0.33587786259541985,0.7938931297709924,0.05343511450381679
-0.9053173828125001,2.732417907714844,-5.889951782226563,-0.6870229007633587,3.2900763358778624,0.45038167938931295
-3.4694851684570316,-0.9086105346679688,-4.011957092285156,1.1603053435114503,3.1068702290076335,0.7099236641221374
-2.2312600708007815,-1.7696200561523439,2.73750732421875,0.04580152671755725,1.3358778625954197,-0.20610687022900762
-0.43798919677734377,-1.439107360839844,4.373904418945313,0.19083969465648853,-1.5877862595419847,-0.1297709923664122
0.7155120849609375,-0.6149212646484375,-2.434537353515625,0.4427480916030534,-2.595419847328244,-1.580152671755725
1.615440673828125,1.9351757812500001,-1.9504440307617188,0.22900763358778625,-0.7404580152671756,-1.465648854961832
1.5822097778320314,0.7487429809570313,0.036524047851562505,1.0916030534351144,0.35877862595419846,-0.12213740458015267
1.8223104858398438,-0.5032534790039063,1.2271481323242188,0.21374045801526717,0.17557251908396945,0.16030534351145037
1.718426513671875,-1.3998889160156252,1.417552185058594,0.4427480916030534,0.0,0.2748091603053435
1.6411871337890627,-1.6540603637695312,1.1720626831054688,0.16793893129770993,0.07633587786259542,0.07633587786259542
1.5585589599609375,-1.349294128417969,0.7490423583984376,0.08396946564885496,0.022900763358778626,-0.007633587786259542
1.5112573242187501,-1.2579840087890626,0.6679110717773438,-0.007633587786259542,0.007633587786259542,-0.007633587786259542
1.5462844848632813,-1.253792724609375,0.36643798828125,-0.05343511450381679,0.03816793893129771,0.022900763358778626
1.1897259521484376,-1.2436138916015627,0.27931915283203124,0.0,0.015267175572519083,0.030534351145038167
1.24301513671875,-1.265767822265625,0.2173480224609375,0.17557251908396945,-0.07633587786259542,-0.03816793893129771
1.2783416748046876,-1.12805419921875,0.18561401367187502,0.04580152671755725,0.03816793893129771,0.030534351145038167
0.69216064453125,-0.664617919921875,0.2736309814453125,-0.1450381679389313,-0.06870229007633588,-0.0916030534351145
0.9304650878906251,-0.319735107421875,-0.07274871826171875,-0.8702290076335878,-0.3511450381679389,0.04580152671755725
0.8463400268554688,-0.8900491333007813,-0.013771362304687501,0.29770992366412213,0.2595419847328244,-0.2213740458015267
0.7289840698242188,-0.38320312500000003,-0.1215472412109375,0.6793893129770993,-0.022900763358778626,0.22900763358778625
0.5942642211914063,-0.5457650756835938,0.0975970458984375,-0.2748091603053435,0.05343511450381679,0.030534351145038167
0.4763095092773438,-1.0451266479492187,0.12124786376953126,0.2595419847328244,-0.022900763358778626,-0.030534351145038167
0.7217990112304687,-0.6930587768554688,-0.32751892089843754,0.20610687022900762,-0.09923664122137404,-0.015267175572519083
0.3703298950195313,-0.7355703735351563,0.113763427734375,-0.09923664122137404,-0.030534351145038167,0.007633587786259542
0.24159759521484375,-0.6008505249023438,-0.03861968994140625,-0.15267175572519084,0.04580152671755725,-0.015267175572519083
0.39308258056640627,0.09490264892578125,-0.10508148193359376,-0.8396946564885496,-0.2213740458015267,-0.11450381679389313
0.3200344848632813,-0.358055419921875,0.2377056884765625,0.6793893129770993,0.26717557251908397,-0.17557251908396945
0.11346405029296876,0.0963995361328125,-0.16016693115234376,0.15267175572519084,-0.015267175572519083,0.12213740458015267
0.32901580810546877,-0.4248165893554688,-0.029937744140625,-0.06870229007633588,0.061068702290076333,0.08396946564885496
0.08232879638671875,0.204774169921875,0.08801696777343751,-0.3129770992366412,0.1450381679389313,-0.061068702290076333
-1.9504440307617188,-0.03682342529296875,1.948049011230469,0.1297709923664122,0.061068702290076333,0.6870229007633587
-3.1293923950195315,1.5459851074218751,-0.28889923095703124,-0.21374045801526717,-1.5725190839694656,0.6412213740458015
0.39667510986328125,2.0315753173828126,-2.6803262329101565,-0.47328244274809156,-0.6946564885496183,0.549618320610687
2.2231768798828124,0.3347039794921875,-2.1142034912109375,-0.3129770992366412,1.015267175572519,0.24427480916030533
-0.267044677734375,4.369114379882813,-4.361929321289063,1.564885496183206,2.099236641221374,1.6793893129770991
-1.9534378051757812,3.4862503051757816,-4.747527465820313,-0.183206106870229,3.2748091603053435,1.2442748091603053
-0.5104385375976562,-0.5643264770507813,-0.1886077880859375,0.061068702290076333,1.9312977099236641,0.7099236641221374
-2.2704785156250002,-4.105362854003906,4.732259216308594,-0.022900763358778626,0.007633587786259542,-0.6717557251908397
-0.9798623657226563,-0.7744894409179688,-1.4543756103515626,0.7175572519083969,-3.213740458015267,-0.366412213740458
-1.515747985839844,2.3234683227539064,-5.470523986816406,1.045801526717557,-3.091603053435114,-0.1450381679389313
3.280578002929688,2.755170593261719,-3.047362976074219,0.2595419847328244,-0.6946564885496183,-0.2595419847328244
5.007985839843751,-0.034727783203125,-1.891766052246094,0.022900763358778626,0.5419847328244275,0.42748091603053434
1.4780264282226563,2.1339624023437502,-5.227130126953125,0.183206106870229,2.8854961832061066,0.5801526717557252
-2.0351678466796876,-0.645457763671875,-4.098776550292969,-0.061068702290076333,3.099236641221374,-0.061068702290076333
-2.1701870727539063,-3.1332843017578127,2.950963439941406,-0.6106870229007634,0.6946564885496183,-0.3893129770992366
0.5385800170898438,-3.019820251464844,1.5411950683593751,0.183206106870229,-2.5114503816793894,-0.7862595419847328
1.0232720947265626,2.945574645996094,-4.284091186523438,-1.282442748091603,-1.3969465648854962,-2.717557251908397
1.2840298461914064,2.925216979980469,-0.5706134033203125,1.450381679389313,-0.8091603053435115,-0.20610687022900762
1.7211209106445313,0.09669891357421875,0.10807525634765626,0.19083969465648853,-0.37404580152671757,-0.4961832061068702
1.5747253417968752,-0.8541238403320313,1.033450927734375,0.564885496183206,0.3969465648854962,-0.0916030534351145
1.4349160766601563,-1.4181509399414063,1.390308837890625,0.46564885496183206,-0.11450381679389313,0.11450381679389313
1.3648617553710938,-1.6582516479492189,1.0720706176757813,-0.030534351145038167,0.022900763358778626,0.06870229007633588
1.3268408203125002,-1.5376025390625,0.6825805664062501,0.08396946564885496,0.06870229007633588,0.04580152671755725
