timestamp,accel.x,accel.y,accel.z,gyro.x,gyro.y,gyro.z
57:41:388705,-0.023351440429687502,0.07394622802734375,0.355660400390625,0.007633587786259542,-0.015267175572519083,0.0
57:41:433588,-0.01916015625,0.07095245361328126,0.3502716064453125,0.015267175572519083,-0.015267175572519083,0.0
57:41:439046,-0.01916015625,0.07095245361328126,0.3502716064453125,0.015267175572519083,-0.015267175572519083,0.0
57:41:481339,-0.01526824951171875,0.06975494384765625,0.3406915283203125,0.015267175572519083,-0.007633587786259542,0.0
57:41:481487,-0.010777587890625,0.07035369873046875,0.3323089599609375,0.015267175572519083,-0.007633587786259542,0.0
57:41:481591,-0.010777587890625,0.07035369873046875,0.3323089599609375,0.015267175572519083,-0.007633587786259542,0.0
57:41:525343,-0.0077838134765625,0.0724493408203125,0.3299139404296875,0.007633587786259542,0.0,0.0
57:41:525530,-0.0089813232421875,0.07394622802734375,0.3338058471679688,0.0,0.007633587786259542,0.0
57:41:571139,-0.0089813232421875,0.07394622802734375,0.3338058471679688,0.0,0.007633587786259542,0.0
57:41:571320,-0.013172607421875001,0.07694000244140625,0.34248779296875004,0.0,0.007633587786259542,-0.007633587786259542
57:41:571527,-0.018262023925781252,0.080233154296875,0.3502716064453125,-0.007633587786259542,0.0,-0.007633587786259542
57:41:614047,-0.018262023925781252,0.080233154296875,0.3502716064453125,-0.007633587786259542,0.0,-0.007633587786259542
57:41:614180,-0.0221539306640625,0.08592132568359376,0.354462890625,-0.007633587786259542,-0.007633587786259542,0.0
57:41:658439,-0.02424957275390625,0.09011260986328125,0.35775604248046877,-0.015267175572519083,-0.007633587786259542,0.0
57:41:658571,-0.02424957275390625,0.09011260986328125,0.35775604248046877,-0.015267175572519083,-0.007633587786259542,0.0
57:41:703509,-0.025746459960937502,0.09071136474609376,0.3553610229492188,-0.015267175572519083,-0.015267175572519083,0.0
57:41:751695,-0.025147705078125002,0.08472381591796875,0.3502716064453125,-0.022900763358778626,-0.015267175572519083,0.007633587786259542
57:41:751853,-0.025147705078125002,0.08472381591796875,0.3502716064453125,-0.022900763358778626,-0.015267175572519083,0.007633587786259542
57:41:795667,-0.022752685546875002,0.07454498291015625,0.34338592529296874,-0.022900763358778626,-0.015267175572519083,0.007633587786259542
57:41:795828,-0.022752685546875002,0.07454498291015625,0.34338592529296874,-0.022900763358778626,-0.015267175572519083,0.007633587786259542
57:41:796010,-0.01945953369140625,0.05957611083984375,0.3391946411132813,-0.015267175572519083,-0.015267175572519083,0.007633587786259542
57:41:838551,-0.01676513671875,0.0389190673828125,0.3391946411132813,-0.015267175572519083,-0.007633587786259542,0.007633587786259542
57:41:883900,-0.01676513671875,0.0389190673828125,0.3391946411132813,-0.015267175572519083,-0.007633587786259542,0.007633587786259542
57:41:884153,-0.015567626953125,0.01916015625,0.33859588623046877,0.0,0.0,0.007633587786259542
57:41:928382,-0.01945953369140625,0.003592529296875,0.3391946411132813,0.007633587786259542,0.0,0.007633587786259542
57:41:928591,-0.01945953369140625,0.003592529296875,0.3391946411132813,0.007633587786259542,0.0,0.007633587786259542
57:41:974269,-0.0544866943359375,0.037721557617187505,0.355660400390625,0.022900763358778626,-0.015267175572519083,-0.015267175572519083
57:42:018166,True,False,,,,
57:42:018799,True,False,,,,
57:42:063543,True,False,,,,
57:42:064040,True,False,,,,
57:42:064261,True,False,,,,
57:42:198230,-0.0293389892578125,0.03143463134765625,0.3661386108398438,0.007633587786259542,-0.007633587786259542,-0.007633587786259542
57:42:243090,-0.03203338623046875,0.0335302734375,0.37092864990234375,0.007633587786259542,-0.007633587786259542,-0.007633587786259542
57:42:333378,-0.03442840576171875,0.046702880859375004,0.37661682128906254,-0.007633587786259542,-0.015267175572519083,-0.007633587786259542
57:42:333581,-0.03562591552734375,0.047601013183593756,0.37392242431640627,-0.015267175572519083,-0.015267175572519083,-0.007633587786259542
57:42:339712,-0.00449066162109375,0.02245330810546875,0.34129028320312504,0.0,-0.015267175572519083,0.0
57:42:340015,0.0056881713867187505,0.014070739746093752,0.33290771484375004,0.007633587786259542,-0.007633587786259542,-0.007633587786259542
57:42:378327,0.009580078125,0.0053887939453125,0.32751892089843754,0.022900763358778626,0.007633587786259542,0.0
57:42:432009,0.0005987548828125,0.0014968872070312501,0.3311114501953125,0.030534351145038167,0.007633587786259542,0.0
57:42:432263,-0.009580078125,-0.0101788330078125,0.338895263671875,0.061068702290076333,0.0,-0.007633587786259542
57:42:471051,-0.009580078125,-0.0101788330078125,0.338895263671875,0.061068702290076333,0.0,-0.007633587786259542
57:42:471260,0.013172607421875001,0.02724334716796875,0.32901580810546877,0.061068702290076333,0.015267175572519083,-0.022900763358778626
57:42:513460,0.008382568359375,0.040415954589843754,0.3305126953125,0.061068702290076333,0.015267175572519083,-0.015267175572519083
57:42:611514,-0.0161663818359375,0.14699432373046875,0.3406915283203125,0.0,0.007633587786259542,0.0
57:42:611706,-0.0161663818359375,0.14699432373046875,0.3406915283203125,0.0,0.007633587786259542,0.0
57:42:611792,-0.07304809570312501,0.23321502685546877,0.348475341796875,-0.09923664122137404,-0.007633587786259542,0.015267175572519083
57:42:612048,-0.0999920654296875,0.2775228881835938,0.3445834350585938,-0.1450381679389313,-0.022900763358778626,0.030534351145038167
57:42:612147,-0.20207977294921875,0.5487588500976562,0.3730242919921875,-0.4961832061068702,-0.08396946564885496,0.061068702290076333
57:42:612231,-0.20207977294921875,0.5487588500976562,0.3730242919921875,-0.4961832061068702,-0.08396946564885496,0.061068702290076333
57:42:612324,-0.20866607666015627,0.5679190063476562,0.5080435180664062,-0.6641221374045801,-0.11450381679389313,0.16793893129770993
57:42:648164,-0.18711090087890625,0.5598358154296875,0.528101806640625,-0.6870229007633587,-0.11450381679389313,0.183206106870229
57:42:700305,-0.09520202636718751,0.7583230590820312,0.5227130126953126,-0.9007633587786259,-0.007633587786259542,0.12213740458015267
57:42:742380,True,False,,,,
57:42:742923,-0.17034576416015626,1.3897100830078126,0.5718109130859376,-1.0,0.1450381679389313,0.282442748091603
57:42:743017,True,False,,,,
57:42:783615,-1.1011102294921875,3.038082275390625,1.5492782592773438,-2.32824427480916,0.3969465648854962,0.6793893129770993
57:42:833376,-1.431024169921875,2.1306692504882814,3.1054421997070314,-1.9541984732824427,-0.5114503816793893,0.15267175572519084
57:42:833736,-1.3391152954101564,1.5480807495117188,3.629352722167969,-0.8473282442748091,-1.0763358778625953,0.09923664122137404
57:42:918248,-1.0424322509765624,1.3741424560546875,3.6515066528320315,-1.0229007633587786,-1.015267175572519,-0.4580152671755725
57:42:963120,-1.3989907836914064,0.6978488159179688,4.113745422363282,-1.564885496183206,-0.8244274809160305,-1.2061068702290076
57:43:098572,-2.4539968872070315,-0.48139892578125004,4.596641235351563,-1.4122137404580153,-0.42748091603053434,-2.4732824427480917
57:43:098762,-5.075645141601563,-1.2109817504882814,4.784949645996094,0.0916030534351145,-1.0305343511450382,-3.4885496183206106
57:43:098850,-6.903643798828125,0.4152365112304688,3.3078213500976563,1.4885496183206106,-1.8549618320610686,-3.5267175572519083
57:43:098998,-7.024891662597657,2.2908361816406253,1.53041748046875,1.4732824427480915,-1.9312977099236641,-3.312977099236641
57:43:144058,-2.2537133789062502,3.361110534667969,0.4197271728515625,1.6564885496183206,-0.6564885496183206,-0.7709923664122137
57:43:188320,-0.39787261962890624,2.8366012573242188,1.2031979370117187,-0.41221374045801523,1.045801526717557,1.2061068702290076
57:43:188451,-0.8038284301757813,0.40655456542968754,2.7045758056640627,-1.16793893129771,1.2366412213740459,1.5877862595419847
57:43:188539,-0.6421646118164063,-0.5230123901367187,3.951482849121094,-0.5343511450381679,0.6259541984732824,1.0076335877862594
57:43:233284,-0.038020935058593754,0.012274475097656251,4.386777648925781,-0.282442748091603,-0.10687022900763359,1.129770992366412
57:43:233485,0.8565188598632812,-0.6077362060546875,4.512815551757813,-0.11450381679389313,0.022900763358778626,0.9236641221374046
57:43:323151,1.1499087524414062,-1.0062075805664064,4.29427001953125,0.366412213740458,0.3282442748091603,0.8625954198473282
57:43:328878,1.327738952636719,-1.139729919433594,3.370690612792969,1.4274809160305344,0.21374045801526717,0.40458015267175573
57:43:329028,1.4157559204101564,-0.6873706054687501,2.018702087402344,1.8473282442748091,0.8396946564885496,0.15267175572519084
57:43:413352,1.01788330078125,-1.1247610473632812,1.304088134765625,1.7938931297709924,1.5572519083969465,-0.42748091603053434
57:43:593401,-0.06376739501953126,-0.9777667236328126,1.2355307006835938,1.5725190839694656,1.5572519083969465,-1.4351145038167938
57:43:610083,-0.38889129638671877,0.18172210693359375,1.1526031494140625,1.3206106870229006,1.9541984732824427,-1.4198473282442747
57:43:638765,-0.8523275756835937,0.31853759765625,1.2307406616210939,0.9312977099236641,2.068702290076336,-1.4809160305343512
57:43:638885,-1.9240988159179688,0.9481283569335938,1.7324972534179688,1.6870229007633588,1.7709923664122136,-1.2213740458015268
57:43:683150,-2.032473449707031,2.1677920532226564,2.828218688964844,2.9083969465648853,1.1832061068702289,-0.46564885496183206
57:43:688519,0.12543914794921876,2.494412841796875,2.797981567382813,-1.0687022900763359,-0.4580152671755725,0.32061068702290074
57:43:688739,2.125579833984375,0.5535488891601563,1.1741583251953125,-1.5877862595419847,0.549618320610687,-0.366412213740458
57:43:730982,1.5926879882812501,0.25806335449218754,1.8459613037109377,-1.0,1.045801526717557,-0.9847328244274809
57:43:773490,0.3945794677734375,1.5265255737304688,2.3728656005859374,-0.7251908396946565,-0.08396946564885496,-0.12213740458015267
57:43:818871,-0.8663983154296876,1.8426681518554688,1.1154803466796877,-0.8702290076335878,-1.5725190839694656,1.0610687022900762
57:43:819116,-2.0351678466796876,1.1190728759765625,-0.3242257690429688,-0.5267175572519084,-2.16030534351145,1.7633587786259541
57:43:824764,-2.0300784301757813,1.5453863525390625,-1.0283615112304687,-0.41221374045801523,-1.3282442748091603,2.4351145038167936
57:43:865729,-2.7698400878906253,2.0291802978515627,-0.5936654663085937,-0.5267175572519084,-1.0305343511450382,3.1526717557251906
57:43:908138,-2.9832962036132815,2.2097048950195313,-1.2409194946289064,-1.8396946564885495,-0.9007633587786259,3.396946564885496
57:44:043307,-1.7654287719726562,0.9074130249023438,-0.48559020996093755,-0.9847328244274809,-0.47328244274809156,2.9923664122137406
57:44:062891,-0.4601431274414063,0.28231292724609375,0.5840853881835938,-0.8244274809160305,-0.26717557251908397,1.6106870229007633
57:44:091315,0.00239501953125,-0.3975732421875,2.3339465332031253,-0.37404580152671757,-0.5954198473282443,1.2213740458015268
57:44:134099,1.3049862670898438,-0.43080413818359375,2.102527770996094,0.03816793893129771,-0.3969465648854962,0.25190839694656486
57:44:223434,1.8567388916015626,-0.2559677124023438,1.7534536743164064,-0.183206106870229,-0.022900763358778626,-0.40458015267175573
57:44:228895,1.8806890869140627,-0.5742059326171876,1.5795153808593752,0.3511450381679389,-0.35877862595419846,-1.3053435114503815
57:44:358591,2.252515869140625,0.3646417236328125,1.5001803588867189,0.5954198473282443,0.366412213740458,-1.3893129770992365
57:44:358819,2.221380615234375,0.38739440917968754,1.5115567016601563,0.26717557251908397,0.2900763358778626,-1.4045801526717556
57:44:403535,1.2406201171875,0.5406756591796875,1.3684542846679688,1.045801526717557,0.6183206106870229,-1.2748091603053435
57:44:493281,0.96998291015625,0.7801776123046875,1.1951147460937501,0.3282442748091603,0.7633587786259541,-1.0916030534351144
57:44:493474,0.9169931030273438,-0.286204833984375,1.2771441650390625,0.07633587786259542,0.4198473282442748,-1.6793893129770991
57:44:538155,0.6251000976562501,-0.46493316650390626,1.0744656372070314,0.4961832061068702,0.6335877862595419,-2.312977099236641
57:44:583074,-0.30386810302734374,0.9780661010742188,0.8762777709960938,0.4198473282442748,1.4122137404580153,-2.877862595419847
57:44:588446,-0.5562432861328125,2.382745056152344,0.6274951171875001,0.6717557251908397,1.3969465648854962,-1.8854961832061068
57:44:673332,-0.29458740234375,2.5462051391601563,0.6197113037109375,0.8854961832061068,2.099236641221374,-1.3129770992366412
57:44:718184,-1.2519964599609377,1.8570382690429688,2.6662554931640625,6.183206106870228,2.66412213740458,1.4198473282442747
57:44:763134,0.62989013671875,2.6494903564453125,3.1817834472656252,-0.46564885496183206,-0.34351145038167935,0.6030534351145038
57:44:853535,2.08845703125,1.522034912109375,1.312470703125,-1.4274809160305344,0.183206106870229,-0.47328244274809156
57:44:898293,0.5954617309570313,1.9788848876953127,1.8753002929687501,-2.1297709923664123,-0.5267175572519084,0.5343511450381679
57:45:033437,-0.23381378173828127,1.6962725830078127,1.4444961547851562,-2.519083969465649,-0.9847328244274809,0.5419847328244275
57:45:033602,-0.5553451538085937,1.6232244873046875,1.507365417480469,-1.9389312977099236,-0.8625954198473282,0.4427480916030534
57:45:078391,-0.6529421997070313,1.7672250366210938,1.8803897094726563,-1.9923664122137403,-1.1526717557251909,-0.09923664122137404
57:45:078549,-0.8403524780273438,1.379231872558594,2.0543280029296875,-1.7099236641221374,-1.6564885496183206,-0.17557251908396945
57:45:126662,-0.4550537109375,0.8415499877929687,1.979483642578125,-1.4732824427480915,-1.2748091603053435,-0.6641221374045801
57:45:213078,-0.267044677734375,0.6655160522460938,2.2507196044921876,-1.465648854961832,-0.9236641221374046,-1.129770992366412
57:45:213306,-0.65384033203125,-0.4942721557617188,2.641407165527344,-0.7022900763358778,-1.0916030534351144,-1.366412213740458
57:45:439004,-0.7271878051757813,-1.5154486083984375,1.9782861328125,-0.37404580152671757,-0.17557251908396945,-2.1297709923664123
57:45:483921,-2.7928921508789064,-1.6603472900390626,1.906435546875,0.23664122137404578,0.7480916030534351,-3.5038167938931295
57:45:537075,-4.235592041015625,0.6358776855468751,1.776805114746094,2.045801526717557,-0.5572519083969465,-1.9465648854961832
57:45:537209,-0.9481283569335938,2.2016217041015627,1.2250524902343751,1.984732824427481,-1.0534351145038168,-0.7251908396946565
57:45:573209,0.9175918579101563,2.2004241943359375,1.0481204223632814,0.7175572519083969,-0.366412213740458,0.3282442748091603
57:45:573381,1.289418640136719,0.9211843872070313,1.3468991088867188,-0.45038167938931295,0.2900763358778626,0.8625954198473282
57:45:573463,1.1187734985351563,0.08382568359375,2.1076171875000003,-0.38167938931297707,0.7099236641221374,0.7938931297709924
57:45:663474,0.6364764404296875,-0.09250762939453125,2.6961932373046875,-0.2213740458015267,0.3129770992366412,1.2366412213740459
57:45:663606,0.8786727905273438,-0.40236328125000004,2.401905212402344,-0.12213740458015267,0.34351145038167935,0.9083969465648855
57:45:708895,1.0792556762695313,-0.3784130859375,2.036065979003906,0.1297709923664122,0.7022900763358778,0.7938931297709924
57:45:799254,1.0319540405273437,-0.4005670166015625,2.0378622436523437,0.4198473282442748,0.9923664122137404,0.6564885496183206
57:45:843056,1.22625,-0.73527099609375,2.3153851318359377,0.8167938931297709,1.2595419847328244,0.5267175572519084
57:45:843221,1.4932946777343752,-0.9894424438476563,1.8468594360351565,1.3053435114503815,1.7404580152671756,0.08396946564885496
57:45:888201,0.729283447265625,-1.0888357543945313,2.242037658691406,1.3053435114503815,1.2671755725190839,-0.6717557251908397
57:45:933410,0.75922119140625,-0.4355941772460938,1.99984130859375,0.8549618320610687,2.091603053435114,-1.083969465648855
57:46:023239,0.03592529296875,-0.28919860839843753,2.222278747558594,0.9389312977099237,1.8244274809160304,-0.9618320610687022
57:46:113412,-1.3223501586914064,0.13142669677734375,2.3581961059570316,1.5954198473282442,1.7709923664122136,-0.9083969465648855
57:46:113562,-1.4043795776367187,2.4264541625976563,2.616259460449219,0.16793893129770993,1.8625954198473282,-1.5419847328244274
57:46:203177,-0.9217831420898438,3.1722033691406253,3.994593200683594,1.4351145038167938,-0.5419847328244275,0.6183206106870229
57:46:208493,2.058519287109375,0.24698638916015625,2.431842956542969,-0.8167938931297709,0.21374045801526717,0.3969465648854962
57:46:248172,2.3632855224609375,-0.0221539306640625,2.129471740722656,-0.6183206106870229,1.0305343511450382,-0.83206106870229
57:46:293537,1.5408956909179687,0.9493258666992188,2.3860382080078124,-0.9923664122137404,0.5343511450381679,-0.7022900763358778
57:46:429693,0.8181985473632812,1.7145346069335938,2.3848406982421877,-1.3206106870229006,-0.5038167938931297,-0.15267175572519084
57:46:563343,-0.19848724365234377,1.6399896240234375,1.6040643310546876,-0.8091603053435115,-1.4045801526717556,0.9389312977099237
57:46:563493,-0.9930349731445313,1.349593505859375,0.801134033203125,0.007633587786259542,-1.6335877862595418,1.580152671755725
57:46:563609,-1.5576608276367188,1.7145346069335938,0.07753875732421875,-0.183206106870229,-1.3129770992366412,2.4580152671755724
57:46:617061,-2.279759216308594,2.1743783569335937,-0.7421566772460938,-0.9618320610687022,-1.0610687022900762,2.6946564885496183
57:46:698555,-2.4935147094726564,1.9489471435546877,-1.0017169189453126,-1.3511450381679388,-0.8854961832061068,2.8244274809160306
57:46:698720,-2.615061950683594,1.5816110229492188,-0.5804928588867188,-1.3969465648854962,-0.48854961832061067,2.6946564885496183
57:46:743445,-1.8546432495117189,1.0867401123046876,0.067060546875,-0.916030534351145,-0.46564885496183206,2.633587786259542
57:46:788429,0.10268646240234376,0.038020935058593754,0.9565109252929688,-1.3893129770992365,-0.08396946564885496,1.4732824427480915
57:46:923557,0.7041357421875001,-1.7693206787109377,1.447789306640625,-1.3129770992366412,-0.24427480916030533,0.37404580152671757
57:46:923781,1.5118560791015625,-1.9034417724609376,1.6010705566406251,0.5114503816793893,0.007633587786259542,-0.5038167938931297
57:46:968454,1.6220269775390626,-0.564027099609375,1.5238311767578125,0.8778625954198473,0.03816793893129771,-0.8854961832061068
57:47:058261,1.6881893920898439,0.3373983764648438,1.4498849487304688,0.3282442748091603,0.35877862595419846,-1.2900763358778626
57:47:058479,1.6208294677734376,0.7355703735351563,1.7199234008789064,0.33587786259541985,0.7404580152671756,-1.3969465648854962
57:47:064085,1.3289364624023439,0.7765850830078126,1.8516494750976564,0.4809160305343511,0.7480916030534351,-1.450381679389313
57:47:106563,1.4109658813476562,0.4409829711914063,2.0348684692382815,0.7862595419847328,0.6641221374045801,-1.5190839694656488
57:47:148274,0.8744815063476563,0.5852828979492187,1.9139199829101563,0.7251908396946565,0.3053435114503817,-1.3358778625954197
57:47:283154,1.0244696044921875,0.31255004882812504,1.5480807495117188,0.7786259541984732,0.4580152671755725,-1.9236641221374045
57:47:301258,0.9675878906250001,0.367635498046875,1.1118878173828126,0.7099236641221374,1.0610687022900762,-1.8778625954198473
57:47:301412,0.536484375,1.2199630737304688,1.3274395751953125,-0.09923664122137404,1.0381679389312977,-1.9389312977099236
57:47:328557,0.6661148071289062,1.43701171875,1.3744418334960937,-0.022900763358778626,1.5419847328244274,-1.549618320610687
57:47:463268,0.5343887329101563,1.4672488403320314,2.2007235717773437,0.183206106870229,1.66412213740458,-0.8702290076335878
57:47:553115,0.49337402343750003,0.7634124755859375,2.090552673339844,1.1068702290076335,1.3129770992366412,-0.32061068702290074
57:47:558844,-0.5948629760742188,2.01900146484375,3.6347415161132814,4.213740458015267,0.7022900763358778,0.732824427480916
57:47:558974,1.167572021484375,2.2007235717773437,2.771935729980469,-1.0534351145038168,-0.8702290076335878,0.12213740458015267
57:47:643297,2.3845413208007815,0.1754351806640625,1.7019607543945314,-1.1221374045801527,-0.022900763358778626,-0.03816793893129771
57:47:696489,1.6211288452148438,0.9915380859375,1.9193087768554689,-1.8854961832061068,0.34351145038167935,-0.1984732824427481
57:47:735484,0.0592767333984375,1.5148498535156252,2.076182556152344,-2.0763358778625953,-0.8854961832061068,0.2595419847328244
57:47:735648,-0.8343649291992188,2.2776635742187503,1.7181271362304689,-1.5114503816793892,-1.0687022900763359,0.6335877862595419
57:47:823416,-1.4013858032226563,2.502496032714844,1.4034814453125,-1.8396946564885495,-1.4351145038167938,0.7404580152671756
57:47:868309,-1.390308837890625,2.0076251220703125,1.4681469726562502,-2.0,-1.7633587786259541,0.4809160305343511
57:48:003215,-1.0322534179687501,0.9933343505859376,1.4642550659179687,-2.015267175572519,-1.900763358778626,0.1450381679389313
57:48:020611,-0.15477813720703126,0.0473016357421875,1.8360818481445313,-1.9923664122137403,-1.114503816793893,-0.7022900763358778
57:48:020810,-0.14130615234375002,-1.0588980102539063,2.4267535400390625,-1.465648854961832,-0.7709923664122137,-1.3358778625954197
57:48:048399,-0.040415954589843754,-1.8055453491210938,2.0875588989257814,-0.7786259541984732,0.366412213740458,-2.2519083969465647
57:48:139111,-1.9645147705078125,-1.1768527221679688,2.39262451171875,-0.2748091603053435,1.045801526717557,-2.7938931297709924
57:48:185455,-3.504811706542969,0.28680358886718754,2.386337585449219,0.2595419847328244,0.21374045801526717,-1.9770992366412212
57:48:185699,-2.664459228515625,1.9624191284179688,1.7196240234375,1.1221374045801527,0.48854961832061067,-1.9923664122137403
57:48:228442,0.0556842041015625,3.1509475708007812,2.1151016235351565,1.1068702290076335,-0.549618320610687,0.5343511450381679
57:48:408200,1.146016845703125,1.478924560546875,2.039359130859375,-0.08396946564885496,-0.17557251908396945,1.015267175572519
57:48:453911,0.9481283569335938,0.3251239013671875,2.412383422851563,0.0,0.05343511450381679,0.8778625954198473
57:48:551504,0.6436614990234375,0.2900967407226563,2.6494903564453125,0.183206106870229,0.0,1.1603053435114503
57:48:551709,0.45235931396484375,0.0473016357421875,2.5704547119140626,0.33587786259541985,0.08396946564885496,1.3206106870229006
57:48:551863,0.795146484375,-0.3200344848632813,2.4402255249023437,0.4809160305343511,0.09923664122137404,1.1603053435114503
57:48:591507,1.2005035400390625,-0.8577163696289063,2.120490417480469,0.9618320610687022,0.5954198473282443,0.7251908396946565
57:48:678355,1.4004876708984375,-1.3151651000976563,1.77470947265625,1.5190839694656488,0.8015267175572519,0.061068702290076333
57:48:678553,1.4684463500976563,-1.5226336669921876,1.5624508666992187,1.8396946564885495,1.381679389312977,-0.4580152671755725
57:48:732008,0.8041278076171875,-1.6133450317382814,1.728006591796875,1.7786259541984732,1.5572519083969465,-1.198473282442748
57:48:732144,0.26764343261718754,-0.8400531005859375,2.027084655761719,1.366412213740458,1.3435114503816794,-1.5038167938931297
57:48:903139,-0.488583984375,-0.3254232788085938,1.8528469848632814,1.2442748091603053,1.6870229007633588,-1.7099236641221374
57:48:956594,-1.5343093872070312,0.42840911865234377,2.20341796875,1.0687022900763359,1.381679389312977,-1.2900763358778626
57:48:994081,-2.12917236328125,1.6645385742187502,2.792293395996094,0.6641221374045801,1.7786259541984732,-1.8396946564885495
57:48:994298,-1.0029144287109375,3.6374359130859375,3.6009118652343752,0.015267175572519083,-0.25190839694656486,-0.83206106870229
57:49:083354,1.2645703125,1.1478131103515625,2.953957214355469,0.4580152671755725,-0.22900763358778625,1.0687022900763359
57:49:083550,2.4878265380859377,-0.4233197021484375,2.652484130859375,0.6564885496183206,0.21374045801526717,0.1984732824427481
57:49:128448,2.0432510375976562,0.9954299926757812,2.3102957153320314,-0.11450381679389313,0.23664122137404578,-0.08396946564885496
57:49:180209,0.6753955078125,1.7262103271484377,2.0136126708984374,-0.6412213740458015,-0.3129770992366412,0.9541984732824427
57:49:180465,-0.5343887329101563,1.7348922729492189,1.6372952270507812,-0.3511450381679389,-0.6793893129770993,1.7251908396946565
57:49:263462,-1.6435821533203125,1.8208135986328127,1.0349478149414062,-0.32061068702290074,-0.4427480916030534,2.236641221374046
57:49:308371,-1.7501605224609376,1.2103829956054688,0.38709503173828125,-1.16793893129771,-0.5114503816793893,2.3587786259541983
57:49:353384,-1.1259585571289064,0.5763015747070312,-0.27542724609375,-1.8854961832061068,-0.38167938931297707,1.984732824427481
57:49:398125,-0.31404693603515627,0.6762936401367188,-0.27931915283203124,-1.366412213740458,-0.25190839694656486,1.7633587786259541
57:49:443650,0.07933502197265625,1.924398193359375,0.4358935546875,-0.7099236641221374,0.13740458015267176,1.6717557251908397
57:49:488424,-0.9241781616210938,3.8299356079101563,0.833466796875,-1.2061068702290076,-0.1984732824427481,2.267175572519084
57:49:579736,-1.2397219848632812,2.30640380859375,1.1301498413085938,-1.0229007633587786,-0.16793893129770993,2.2061068702290076
57:49:632402,-0.5924679565429688,-0.7586224365234375,1.3172607421875,-1.0916030534351144,-0.7175572519083969,1.282442748091603
57:49:632575,1.0325527954101563,-1.7366885375976564,1.4031820678710938,-0.5267175572519084,-0.34351145038167935,0.2748091603053435
57:49:759257,1.7606387329101563,-1.2166699218750001,1.92799072265625,0.32061068702290074,0.0916030534351145,-0.42748091603053434
57:49:764609,2.235750732421875,-0.5352868652343751,2.2216799926757815,0.7633587786259541,-0.061068702290076333,-0.5572519083969465
57:49:848606,2.189945983886719,0.24878265380859377,1.8303936767578126,0.3511450381679389,0.07633587786259542,-1.0763358778625953
57:49:893566,2.0001406860351563,0.622705078125,1.9193087768554689,0.2900763358778626,0.37404580152671757,-0.9847328244274809
57:50:028181,1.7806970214843751,0.43619293212890625,1.9950512695312501,0.2595419847328244,0.33587786259541985,-1.099236641221374
57:50:028397,1.5576608276367188,0.4358935546875,1.9809805297851564,0.2748091603053435,0.366412213740458,-1.2442748091603053
57:50:073799,1.2582833862304688,0.26794281005859377,1.7980609130859375,0.2748091603053435,0.40458015267175573,-1.3740458015267174
57:50:118441,1.129251708984375,-0.42302032470703127,1.6340020751953126,0.8244274809160305,0.5801526717557252,-1.748091603053435
57:50:118633,0.6604266357421875,-0.346080322265625,1.1535012817382813,0.9465648854961831,0.48854961832061067,-1.9618320610687021
57:50:168576,0.6122268676757813,-0.6391708374023438,0.7900570678710938,1.5877862595419847,0.6183206106870229,-1.9465648854961832
57:50:253241,-0.22543121337890626,1.259480895996094,0.20746856689453125,0.366412213740458,1.099236641221374,-2.49618320610687
57:50:433179,0.202379150390625,1.274150390625,1.0029144287109375,0.6641221374045801,0.9007633587786259,-1.1526717557251909
57:50:433326,-0.49217651367187504,1.320853271484375,1.435814208984375,1.0305343511450382,1.4580152671755724,-1.4961832061068703
57:50:450789,-0.7116201782226563,3.2126193237304688,2.285746765136719,-0.45038167938931295,0.83206106870229,-1.5572519083969465
57:50:478544,0.23201751708984375,3.00095947265625,3.65719482421875,1.2366412213740459,-0.48854961832061067,0.37404580152671757
57:50:478667,1.962718505859375,0.7547305297851563,2.528841247558594,0.04580152671755725,-0.19083969465648853,0.41221374045801523
57:50:478752,2.4650738525390627,0.1874102783203125,1.9591259765625002,-1.0916030534351144,0.10687022900763359,-0.3053435114503817
57:50:613357,1.8824853515625002,0.5700146484375,1.7274078369140626,-1.4885496183206106,0.2595419847328244,-0.1984732824427481
57:50:703771,0.7439529418945313,1.3945001220703126,1.6711248779296877,-2.564885496183206,-0.32061068702290074,-0.007633587786259542
57:50:748434,-0.24339385986328127,1.0882369995117187,1.9061361694335939,-1.984732824427481,-0.8396946564885496,0.21374045801526717
57:50:748627,-0.8170010375976563,0.5888754272460938,2.2468276977539063,-0.9847328244274809,-1.3053435114503815,0.20610687022900762
57:50:793334,-1.2337344360351563,1.1969110107421876,1.9755917358398438,-1.1603053435114503,-1.7633587786259541,0.11450381679389313
57:50:793472,-1.1816427612304687,1.2828323364257812,1.983076171875,-1.2366412213740459,-1.9312977099236641,-0.1297709923664122
57:50:884192,-0.9244775390625001,0.7448510742187501,2.128872985839844,-1.4351145038167938,-1.8396946564885495,-0.4809160305343511
57:50:973429,-0.40206390380859375,0.13202545166015625,2.580633544921875,-1.3587786259541985,-0.9847328244274809,-1.4427480916030533
57:50:973620,-0.7777825927734375,-0.7634124755859375,2.7863058471679687,-0.3129770992366412,-0.7938931297709924,-1.8549618320610686
57:51:063826,-1.2690609741210939,-1.005908203125,2.3333477783203125,0.022900763358778626,-0.4809160305343511,-2.267175572519084
57:51:153533,-2.682122497558594,-0.6792874145507812,1.8444644165039064,0.007633587786259542,-0.48854961832061067,-2.4580152671755724
57:51:198439,-3.1820828247070314,0.279019775390625,1.3693524169921876,0.8854961832061068,-0.16030534351145037,-2.2519083969465647
57:51:243742,-0.8271798706054688,2.2710772705078126,1.5241305541992187,0.916030534351145,-0.007633587786259542,-1.2366412213740459
57:51:296949,0.7238946533203126,2.85725830078125,1.8564395141601564,0.3511450381679389,-0.2213740458015267,1.083969465648855
57:51:297141,0.5155279541015625,1.2918136596679688,2.228266296386719,-0.6335877862595419,0.06870229007633588,1.3435114503816794
57:51:378578,-0.11047027587890626,0.24279510498046877,2.5001010131835937,-0.05343511450381679,0.022900763358778626,1.4274809160305344
57:51:426730,0.20387603759765627,-0.12424163818359375,2.4659719848632813,-0.015267175572519083,0.2900763358778626,1.4122137404580153
57:51:426866,0.5188211059570312,-0.44337799072265627,2.4168740844726564,0.007633587786259542,0.41221374045801523,1.198473282442748
57:51:513179,0.852626953125,-0.8283773803710938,2.575244750976563,0.3969465648854962,0.4351145038167939,0.8396946564885496
57:51:558575,1.3253439331054688,-1.1732601928710937,2.2977218627929688,1.0305343511450382,0.6564885496183206,0.7251908396946565
57:51:563910,1.7498611450195314,-1.2765454101562501,1.474134521484375,1.7175572519083968,0.8244274809160305,0.35877862595419846
57:51:648409,1.6974700927734376,-1.4986834716796875,1.016685791015625,1.6946564885496183,1.648854961832061,-0.4809160305343511
57:51:694239,0.8535250854492188,-1.0469229125976562,1.5750247192382814,1.3129770992366412,2.145038167938931,-1.0534351145038168
57:51:694456,0.1071771240234375,-0.7646099853515625,1.8824853515625002,1.4580152671755724,1.4198473282442747,-0.7175572519083969
57:51:738710,-0.6304888916015625,-0.6164181518554688,2.275567932128906,1.129770992366412,1.748091603053435,-1.6335877862595418
57:51:785962,-1.289418640136719,0.085023193359375,2.3444247436523438,1.7862595419847327,0.9389312977099237,-0.8473282442748091
57:51:918689,-1.460662536621094,1.3849200439453127,1.6693286132812502,1.3206106870229006,1.297709923664122,-1.2671755725190839
57:51:963546,-0.2547702026367188,3.1455587768554687,2.316882019042969,-0.1450381679389313,0.7099236641221374,-1.2366412213740459
57:52:008020,1.3133688354492188,1.4911990356445313,3.1392718505859376,0.1984732824427481,-0.1450381679389313,0.7938931297709924
57:52:098298,2.1507275390625002,-0.6248007202148438,2.991080017089844,0.5877862595419847,0.030534351145038167,0.3893129770992366
57:52:098526,2.249821472167969,0.10029144287109376,2.499202880859375,-0.6564885496183206,0.3129770992366412,-0.45038167938931295
57:52:146062,1.1570938110351563,1.289718017578125,2.4737557983398437,-1.1068702290076335,-0.23664122137404578,-0.13740458015267176
57:52:191043,0.14879058837890627,1.3930032348632813,2.16509765625,-0.4809160305343511,-0.9618320610687022,0.9465648854961831
57:52:191261,-0.5316943359375,0.6816824340820313,1.3720468139648438,0.35877862595419846,-0.9923664122137404,1.7251908396946565
57:52:286721,-0.42810974121093753,0.21644989013671875,1.025068359375,0.366412213740458,-0.6412213740458015,1.9618320610687021
57:52:368252,-1.1067984008789062,1.0532098388671876,0.5457650756835938,-0.6641221374045801,-0.6870229007633587,2.114503816793893
57:52:458401,-1.5480807495117188,1.495689697265625,-0.5298980712890625,-1.3053435114503815,-0.6793893129770993,2.229007633587786
57:52:458591,-1.9818786621093751,2.5441094970703126,-1.033450927734375,-1.213740458015267,-0.20610687022900762,2.465648854961832
57:52:503390,-2.2608984375000003,2.4998016357421875,-0.5757028198242188,-0.9312977099236641,0.3282442748091603,2.7938931297709924
57:52:509694,-2.1444406127929687,2.1019290161132815,0.21884490966796877,-0.6641221374045801,0.33587786259541985,2.6946564885496183
57:52:548206,-1.5908917236328126,0.923280029296875,1.1112890625,-1.0381679389312977,-0.0916030534351145,2.0839694656488548
57:52:638937,-0.3811074829101563,-1.4807208251953126,1.7528549194335938,-0.9312977099236641,-0.5038167938931297,1.1374045801526718
57:52:683427,1.3349240112304688,-1.9507434082031252,1.9202069091796876,0.11450381679389313,-0.32061068702290074,0.183206106870229
57:52:728271,1.6792080688476563,-0.8816665649414063,1.97110107421875,0.13740458015267176,0.015267175572519083,-0.20610687022900762
57:52:733644,2.2141955566406253,-0.7032376098632813,2.022593994140625,-0.04580152671755725,0.06870229007633588,-0.6946564885496183
57:52:773194,1.994751892089844,-0.5888754272460938,1.6866925048828125,0.5114503816793893,0.2900763358778626,-1.3282442748091603
57:52:863475,1.7073495483398438,0.061372375488281256,1.6046630859375002,0.26717557251908397,0.6259541984732824,-1.564885496183206
57:52:908340,1.3454022216796875,0.18441650390625,1.85614013671875,0.16030534351145037,0.4809160305343511,-1.7404580152671756
57:52:953249,0.9825567626953126,0.202379150390625,1.5109579467773437,0.33587786259541985,0.5343511450381679,-1.66412213740458
57:53:043561,0.8583151245117188,0.5912704467773438,1.6675323486328126,0.366412213740458,0.9236641221374046,-1.7633587786259541
57:53:088432,0.46613067626953125,1.17595458984375,1.5283218383789063,0.3129770992366412,0.549618320610687,-1.4961832061068703
57:53:133268,0.5658233642578125,0.9268725585937501,1.264270935058594,0.8473282442748091,0.8549618320610687,-1.7633587786259541
57:53:223765,0.5098397827148438,0.9523196411132813,0.762813720703125,0.9312977099236641,1.1450381679389312,-1.748091603053435
57:53:223949,0.30716125488281254,1.3873150634765625,1.1448193359375,0.366412213740458,0.9083969465648855,-1.2748091603053435
57:53:229408,0.22243743896484375,0.8855584716796876,1.2064910888671876,1.2366412213740459,1.1603053435114503,-1.1755725190839694
57:53:269151,-0.0014968872070312501,1.6540603637695312,1.7875827026367188,1.0610687022900762,1.5190839694656488,-1.2900763358778626
57:53:449058,-0.2442919921875,2.2306613159179687,3.1991473388671876,1.6259541984732824,0.564885496183206,-0.8091603053435115
57:53:463677,1.1403286743164063,2.4701632690429687,2.6405090332031254,0.6259541984732824,-0.16030534351145037,0.7099236641221374
57:53:493512,2.6707461547851565,0.45804748535156253,2.2141955566406253,-0.7557251908396946,0.23664122137404578,-0.5725190839694656
57:53:493688,2.2695803833007813,0.159268798828125,2.087259521484375,-0.8931297709923663,0.06870229007633588,-0.32061068702290074
57:53:538308,1.7705181884765626,0.5146298217773437,1.72680908203125,-1.3435114503816794,-0.24427480916030533,-0.282442748091603
57:53:585706,0.41763153076171877,1.9654129028320313,1.4486874389648439,-2.564885496183206,-0.8854961832061068,0.0916030534351145
57:53:681391,-1.1418255615234376,1.4726376342773437,1.5696359252929688,-2.1221374045801524,-1.534351145038168,0.6564885496183206
57:53:718436,-1.545685729980469,1.3699511718750002,1.5148498535156252,-1.3893129770992365,-1.6259541984732824,0.7709923664122137
57:53:898238,-1.25259521484375,1.2966036987304688,1.7474661254882813,-1.366412213740458,-1.7938931297709924,0.41221374045801523
57:53:898446,-0.8199948120117188,0.7319778442382813,1.773511962890625,-1.66412213740458,-1.8549618320610686,0.061068702290076333
57:53:943404,-0.2149530029296875,0.05119354248046875,2.018702087402344,-1.7099236641221374,-1.1450381679389312,-0.83206106870229
57:53:988780,-0.2709365844726563,-0.7041357421875001,2.8461813354492187,-1.1450381679389312,-0.4427480916030534,-1.5725190839694656
57:53:989003,-0.8017327880859375,-1.7872833251953126,3.1844778442382813,-0.1297709923664122,-0.3282442748091603,-2.0229007633587783
57:53:994589,-2.15312255859375,-1.8720071411132813,2.9449758911132813,0.10687022900763359,0.04580152671755725,-2.969465648854962
57:54:078540,-4.846322021484375,-0.542471923828125,2.4438180541992187,0.9847328244274809,-0.8015267175572519,-2.5038167938931295
57:54:123458,-3.10155029296875,1.9067349243164065,0.23111938476562502,1.3740458015267174,-0.22900763358778625,-1.8702290076335877
57:54:348170,-0.21165985107421875,2.998265075683594,0.9235794067382813,0.282442748091603,-0.08396946564885496,0.46564885496183206
57:54:348383,0.06676116943359375,1.5878979492187502,1.6088543701171876,-0.09923664122137404,-0.46564885496183206,1.5190839694656488
57:54:360867,0.6565347290039063,0.0047900390625,1.8914666748046876,0.030534351145038167,0.030534351145038167,1.2595419847328244
57:54:393306,0.880169677734375,-0.3799099731445313,2.115700378417969,0.06870229007633588,0.5190839694656488,0.9236641221374046
57:54:528471,0.705333251953125,-0.4002676391601563,2.3797512817382813,0.183206106870229,0.6412213740458015,0.83206106870229
57:54:528595,0.7391629028320312,-0.42870849609375,2.4375311279296876,0.3969465648854962,0.5725190839694656,0.9083969465648855
57:54:528677,1.0612930297851564,-0.7789801025390626,2.368374938964844,0.6259541984732824,0.8702290076335878,0.6564885496183206
57:54:582172,1.3271401977539063,-1.0439291381835938,1.9519409179687501,1.3053435114503815,0.9770992366412213,0.42748091603053434
57:54:582310,1.469344482421875,-1.35797607421875,1.8794915771484375,1.4809160305343512,1.3206106870229006,-0.3129770992366412
57:54:619281,1.152902526855469,-1.0409353637695313,1.4651531982421875,1.7633587786259541,1.4351145038167938,-0.5725190839694656
57:54:663166,0.5996530151367188,-0.9068142700195313,1.7863851928710939,1.7862595419847327,1.6412213740458015,-1.129770992366412
57:54:708123,0.09041198730468751,-0.46074188232421875,1.6076568603515626,1.4732824427480915,1.3282442748091603,-1.3587786259541985
57:54:753525,-1.114582214355469,-0.1826202392578125,1.919608154296875,1.3893129770992365,1.282442748091603,-1.5725190839694656
57:54:888676,-1.5082635498046877,1.0780581665039064,2.1276754760742187,0.9389312977099237,1.0,-1.534351145038168
57:54:933537,-1.46335693359375,2.321672058105469,3.00095947265625,0.24427480916030533,-0.030534351145038167,-1.4427480916030533
57:54:933698,1.098116455078125,2.4402255249023437,2.31598388671875,-0.4427480916030534,-0.03816793893129771,-0.3282442748091603
57:54:978460,1.8279986572265625,0.81670166015625,2.7530749511718753,0.3511450381679389,0.07633587786259542,0.35877862595419846
57:54:978623,2.0504360961914063,0.7565267944335938,2.3079006958007815,0.3053435114503817,-0.20610687022900762,0.4198473282442748
57:55:113108,1.5893948364257813,1.4855108642578125,1.8076409912109377,-0.12213740458015267,-0.38167938931297707,0.6793893129770993
57:55:158143,0.7906558227539063,1.3510903930664062,1.265767822265625,-0.2748091603053435,-0.41221374045801523,1.4122137404580153
57:55:313266,-0.08861572265625,0.7149133300781251,1.2472064208984375,-0.07633587786259542,-0.25190839694656486,1.4961832061068703
57:55:313473,-0.35835479736328124,0.7421566772460938,0.8140072631835938,-0.5725190839694656,-0.16030534351145037,1.6793893129770991
57:55:383963,-0.7167095947265625,0.9574090576171875,0.6792874145507812,-0.7633587786259541,0.0916030534351145,1.6259541984732824
57:55:384156,-0.9589059448242188,1.282532958984375,0.487386474609375,-0.7786259541984732,-0.022900763358778626,1.8702290076335877
57:55:429054,-1.3645623779296876,2.0121157836914065,0.046403503417968756,-1.1221374045801527,-0.03816793893129771,1.9694656488549618
57:55:473289,-1.4768289184570313,2.115700378417969,-0.2951861572265625,-1.3358778625954197,-0.10687022900763359,2.2900763358778624
57:55:473462,-0.9918374633789063,2.2944287109375003,-0.12064910888671876,-0.8625954198473282,0.17557251908396945,2.480916030534351
57:55:563179,-1.2972024536132813,2.465672607421875,0.520916748046875,-0.916030534351145,0.2595419847328244,2.4732824427480917
57:55:653281,-0.798739013671875,-1.5585589599609375,1.2286450195312502,-1.0229007633587786,-0.4809160305343511,1.6335877862595418
57:55:653447,0.8205935668945313,-1.124461669921875,1.7561480712890627,0.183206106870229,-0.07633587786259542,-0.07633587786259542
57:55:706545,1.768721923828125,0.40775207519531254,1.3043875122070314,-0.5572519083969465,-0.22900763358778625,0.5190839694656488
57:55:706741,2.659369812011719,-0.9253756713867188,1.4588662719726564,0.0916030534351145,0.4351145038167939,-0.37404580152671757
57:55:743115,2.144739990234375,-1.1585906982421876,1.6064593505859375,1.045801526717557,0.29770992366412213,-1.129770992366412
57:55:834085,1.828298034667969,-0.23022125244140626,1.3537847900390625,0.41221374045801523,0.4198473282442748,-1.2213740458015268
57:55:923203,1.4208453369140626,-0.22573059082031252,1.663341064453125,0.03816793893129771,0.366412213740458,-1.66412213740458
57:55:923366,1.1106903076171875,0.01945953369140625,1.7070501708984376,0.648854961832061,0.41221374045801523,-1.6717557251908397
57:56:014048,0.8517288208007813,0.6562353515625,1.8893710327148439,0.4580152671755725,0.8091603053435115,-1.9083969465648853
57:56:019891,0.30177246093750004,0.7613168334960938,1.941163330078125,0.45038167938931295,0.06870229007633588,-1.6870229007633588
57:56:103298,0.42122406005859375,1.3798306274414063,1.6001724243164064,0.4427480916030534,0.8015267175572519,-2.1221374045801524
57:56:156448,0.5107379150390625,1.0277627563476563,1.457369384765625,1.282442748091603,0.7251908396946565,-1.4351145038167938
57:56:193125,0.6137237548828125,1.34360595703125,1.282532958984375,0.8778625954198473,0.7786259541984732,-1.6564885496183206
57:56:373145,0.7807763671875,0.5110372924804688,1.153201904296875,1.3282442748091603,0.4809160305343511,-1.0916030534351144
57:56:373318,0.142503662109375,0.25836273193359377,1.0256671142578127,1.5190839694656488,0.8473282442748091,-1.4198473282442747
57:56:418515,-0.0844244384765625,2.4147784423828127,1.3322296142578125,-0.16793893129770993,0.5343511450381679,-1.7862595419847327
57:56:643963,0.9160949707031251,3.0156289672851564,1.8753002929687501,-1.1068702290076335,0.5038167938931297,-0.7175572519083969
57:56:644195,1.4543756103515626,1.3355227661132814,2.7797195434570314,-0.7175572519083969,0.3511450381679389,0.1297709923664122
57:56:644305,1.8154248046875001,0.7095245361328125,2.9027636718750003,-0.8167938931297709,0.061068702290076333,0.11450381679389313
57:56:658163,1.4615606689453127,0.3610491943359375,2.451003112792969,-1.5954198473282442,-0.23664122137404578,-0.15267175572519084
57:56:823195,0.8134085083007813,0.4843927001953125,2.4111859130859377,-1.8015267175572518,-0.7557251908396946,-0.5190839694656488
57:56:823359,-0.2484832763671875,1.2484039306640626,2.1806652832031252,-1.381679389312977,-1.3282442748091603,0.05343511450381679
57:56:823501,-0.7861651611328125,1.3666580200195313,2.023192749023438,-0.9083969465648855,-1.5038167938931297,0.21374045801526717
57:56:836762,-1.41545654296875,2.0079244995117187,1.9872674560546877,-1.2213740458015268,-1.7404580152671756,0.26717557251908397
57:57:003705,-1.4079721069335938,1.4929953002929688,1.9513421630859376,-1.2595419847328244,-1.9694656488549618,-0.05343511450381679
57:57:003831,-1.031055908203125,0.5607339477539063,1.8693127441406252,-1.3587786259541985,-1.5572519083969465,-0.45038167938931295
57:57:003918,-1.1334429931640626,-1.0373428344726563,2.6243426513671877,-1.099236641221374,-1.3282442748091603,-1.4809160305343512
57:57:015818,-1.2196636962890626,-1.96631103515625,2.2510189819335937,-0.20610687022900762,-0.7633587786259541,-2.045801526717557
57:57:093524,-2.4075933837890626,-2.1543200683593753,2.098935241699219,-0.38167938931297707,0.0916030534351145,-3.2213740458015265
57:57:093685,-5.390590209960938,-0.41583526611328125,2.4525,0.6335877862595419,-0.12213740458015267,-2.7557251908396947
57:57:093840,-3.8838235473632814,1.9681072998046876,1.3301339721679688,1.3282442748091603,-0.46564885496183206,-2.1374045801526718
57:57:138332,0.017064514160156252,2.9027636718750003,0.628692626953125,0.6946564885496183,0.030534351145038167,-0.2900763358778626
57:57:274092,0.12334350585937501,2.1162991333007812,1.2277468872070314,-0.2900763358778626,-0.3893129770992366,1.5114503816793892
57:57:363284,0.3637435913085938,0.35775604248046877,1.9824774169921875,-0.33587786259541985,-0.03816793893129771,1.450381679389313
57:57:368609,0.37392242431640627,-0.2496807861328125,2.5135729980468753,0.061068702290076333,0.19083969465648853,1.2595419847328244
57:57:368726,0.39248382568359375,-0.39547760009765626,2.6497897338867187,0.2595419847328244,0.366412213740458,1.2748091603053435
57:57:408190,0.5948629760742188,-0.7325765991210937,2.5704547119140626,0.4427480916030534,0.4427480916030534,0.9465648854961831
57:57:453114,0.9529183959960938,-1.0148895263671875,2.5833279418945314,0.4198473282442748,0.5419847328244275,0.7022900763358778
57:57:458430,1.507664794921875,-1.3073812866210939,2.092348937988281,0.8549618320610687,0.83206106870229,0.4427480916030534
57:57:543575,1.5980767822265627,-1.8723065185546877,2.1180953979492188,1.2366412213740459,0.9618320610687022,-0.4427480916030534
57:57:633211,1.6208294677734376,-1.1960128784179689,1.531614990234375,1.564885496183206,1.6412213740458015,-0.282442748091603
57:57:723965,0.46104125976562504,-0.808319091796875,1.944755859375,1.3282442748091603,1.5572519083969465,-1.129770992366412
57:57:813268,0.08771759033203125,-0.16585510253906252,1.4861096191406251,1.0229007633587786,1.7404580152671756,-0.9007633587786259
57:57:813447,-0.48259643554687504,-0.34518218994140626,1.72201904296875,1.3358778625954197,2.1755725190839694,-1.0229007633587786
57:57:819102,-1.4570700073242189,-0.4110452270507813,2.1537213134765625,1.7938931297709924,1.2671755725190839,-1.0916030534351144
57:57:819281,-1.5884967041015625,2.2270687866210936,2.8515701293945312,0.23664122137404578,1.2595419847328244,-1.984732824427481
57:57:903507,0.0796343994140625,3.143463134765625,3.523971862792969,-0.6259541984732824,0.23664122137404578,-0.40458015267175573
57:58:045092,0.966390380859375,0.9621990966796875,3.842808837890625,-0.030534351145038167,-0.07633587786259542,0.564885496183206
57:58:045240,1.850152587890625,0.3688330078125,3.3991314697265627,0.1984732824427481,-0.2595419847328244,0.11450381679389313
57:58:083124,1.6420852661132814,1.0133926391601562,3.3045281982421875,-0.06870229007633588,-0.16793893129770993,0.08396946564885496
57:58:088449,0.5885760498046876,1.5133529663085938,2.5366250610351564,0.04580152671755725,-0.564885496183206,0.7099236641221374
57:58:176284,-0.9337582397460938,1.41066650390625,1.670226745605469,0.37404580152671757,-1.0916030534351144,1.7862595419847327
57:58:263172,-1.5181430053710938,0.17124389648437502,0.647852783203125,1.083969465648855,-0.7709923664122137,2.480916030534351
57:58:263374,-1.5872991943359376,0.18351837158203127,0.07604187011718751,0.7480916030534351,-0.0916030534351145,2.259541984732824
57:58:353805,-2.202819213867188,1.766326904296875,-1.0229727172851564,-1.5267175572519083,0.8778625954198473,2.030534351145038
57:58:443211,-3.809278564453125,2.2803579711914064,-1.265767822265625,-1.9618320610687021,0.648854961832061,2.732824427480916
57:58:443349,-4.336781616210938,2.262095947265625,-1.1684701538085938,-2.5572519083969465,0.6793893129770993,3.4351145038167936
57:58:533644,-3.4829571533203127,0.35476226806640626,-0.032931518554687504,-2.801526717557252,-0.3969465648854962,2.549618320610687
57:58:668201,-0.5813909912109375,-1.120869140625,0.7679031372070313,-1.3129770992366412,-0.8473282442748091,1.2900763358778626
57:58:668416,1.23822509765625,-0.41852966308593753,1.3705499267578125,-0.5114503816793893,-0.2748091603053435,0.5877862595419847
57:58:713675,1.6280145263671877,-0.6248007202148438,1.1166778564453126,-0.48854961832061067,-0.24427480916030533,0.0916030534351145
57:58:893199,2.28005859375,-0.8146060180664063,0.9777667236328126,0.19083969465648853,0.3053435114503817,-0.6183206106870229
57:58:909285,1.8678158569335939,0.22034179687500002,1.8019528198242187,0.8625954198473282,0.4961832061068702,-1.0305343511450382
57:58:909510,1.1289523315429688,0.798739013671875,1.7112414550781252,0.9083969465648855,0.16793893129770993,-0.9312977099236641
57:58:938528,1.2172686767578125,0.28410919189453127,1.1310479736328125,0.6259541984732824,0.29770992366412213,-1.2366412213740459
57:58:983263,1.004710693359375,0.032931518554687504,1.0124945068359374,0.6335877862595419,0.9694656488549618,-1.8702290076335877
57:58:989306,0.8367599487304688,0.5107379150390625,1.371148681640625,0.6030534351145038,1.3053435114503815,-1.9618320610687021
57:59:168323,0.06256988525390625,1.1175759887695313,2.1124072265625,1.0534351145038168,1.3740458015267174,-2.0839694656488548
57:59:168482,0.44786865234375,1.7196240234375,2.1058209228515627,0.7862595419847328,0.6870229007633587,-1.6870229007633588
57:59:168585,0.9244775390625001,1.575623474121094,1.9444564819335939,0.6335877862595419,1.2213740458015268,-1.9389312977099236
57:59:208905,0.6059399414062501,1.5570620727539064,1.9800823974609376,0.7938931297709924,1.3893129770992365,-1.7786259541984732
57:59:253804,0.41284149169921874,1.3103750610351563,1.9082318115234376,1.3358778625954197,1.045801526717557,-1.198473282442748
57:59:253981,0.20686981201171875,1.7477655029296877,1.91841064453125,0.9618320610687022,1.213740458015267,-1.5572519083969465
57:59:259683,0.28410919189453127,2.795885925292969,2.5533901977539064,-0.4427480916030534,0.6335877862595419,-1.3206106870229006
57:59:343231,0.966390380859375,2.08845703125,3.846101989746094,-0.6793893129770993,0.24427480916030533,-0.4961832061068702
57:59:441671,1.1133847045898437,1.4944921875000001,3.639830932617188,-0.282442748091603,-0.5038167938931297,0.549618320610687
57:59:478760,0.9463320922851562,0.47660888671875,2.633024597167969,-0.5190839694656488,-0.9389312977099237,0.6183206106870229
57:59:478897,0.67300048828125,0.5679190063476562,1.5022760009765626,-1.0916030534351144,-0.7480916030534351,0.2748091603053435
57:59:524166,0.00089813232421875,1.1403286743164063,1.2951068115234377,-1.816793893129771,-0.7251908396946565,0.16030534351145037
57:59:529556,-0.5313949584960938,0.9624984741210938,1.7771044921875,-1.4885496183206106,-1.2748091603053435,0.1984732824427481
57:59:570494,-0.9358538818359375,1.2804373168945313,1.8318905639648437,-1.4274809160305344,-1.6870229007633588,0.16030534351145037
57:59:658373,-1.1810440063476564,1.1310479736328125,2.1139041137695314,-1.1526717557251909,-2.0,0.10687022900763359
57:59:663727,-0.9466314697265625,0.7247927856445313,2.079775085449219,-1.465648854961832,-1.748091603053435,-0.38167938931297707
57:59:793331,-1.0379415893554689,-0.6744973754882813,2.5941055297851565,-1.0305343511450382,-1.5190839694656488,-1.213740458015267
57:59:883323,-1.2172686767578125,-1.743274841308594,2.052232360839844,-0.061068702290076333,-1.099236641221374,-1.8473282442748091
57:59:973578,-2.343227233886719,-1.8998492431640626,1.7765057373046875,-0.07633587786259542,-0.20610687022900762,-2.916030534351145
57:59:973742,-4.7786627197265625,-1.1819421386718751,1.4352154541015625,1.0534351145038168,0.23664122137404578,-3.3358778625954195
57:59:979431,-4.022734680175781,1.7372872924804688,0.8750802612304688,0.9541984732824427,-0.04580152671755725,-2.564885496183206
58:00:063347,0.239501953125,2.66565673828125,0.8957373046875,0.7862595419847328,0.015267175572519083,-0.16793893129770993
58:00:063485,0.6867718505859375,1.819915466308594,1.4540762329101564,-0.2595419847328244,-0.26717557251908397,1.282442748091603
58:00:068707,1.1654763793945313,0.42122406005859375,2.2474264526367187,-0.5267175572519084,-0.20610687022900762,0.916030534351145
58:00:154150,1.144519958496094,-0.0101788330078125,2.728526000976563,0.0916030534351145,-0.15267175572519084,1.0534351145038168
58:00:308429,1.201102294921875,-0.13262420654296875,2.852168884277344,0.10687022900763359,0.007633587786259542,1.0229007633587786
58:00:333303,1.0960208129882814,-0.26075775146484376,2.79498779296875,0.022900763358778626,0.19083969465648853,0.916030534351145
58:00:513505,1.0493179321289063,-0.3511697387695313,2.728226623535156,-0.09923664122137404,0.2900763358778626,0.83206106870229
58:00:603632,1.1930191040039062,-0.5316943359375,2.4833358764648437,0.1297709923664122,0.3893129770992366,0.7251908396946565
58:00:693392,1.4879058837890626,-0.6271957397460938,1.9594253540039064,0.6946564885496183,0.7862595419847328,0.6793893129770993
58:00:693535,1.6588504028320312,-0.8029302978515626,1.4618600463867188,1.2061068702290076,1.1908396946564885,0.23664122137404578
58:00:693639,1.4950909423828125,-0.7008425903320313,1.3361215209960937,1.2748091603053435,1.6717557251908397,-0.20610687022900762
58:00:783700,1.05620361328125,-0.4218228149414063,1.2067904663085938,1.1908396946564885,1.732824427480916,-0.183206106870229
58:00:783918,0.42870849609375,-0.4278103637695313,1.5402969360351564,0.7786259541984732,1.6564885496183206,-0.9083969465648855
58:00:784110,-0.06975494384765625,-0.33260833740234375,1.858235778808594,0.6870229007633587,2.267175572519084,-0.8931297709923663
58:00:963295,-1.0400372314453126,-0.6304888916015625,2.7402017211914065,1.3053435114503815,1.6793893129770991,-1.4351145038167938
58:00:963448,-1.7750088500976564,0.9618997192382813,2.1450393676757815,1.2900763358778626,1.1832061068702289,-1.1068702290076335
58:01:011077,-0.7523355102539063,2.3839425659179687,3.4452355957031253,0.04580152671755725,1.4122137404580153,-1.5190839694656488
58:01:053031,0.5649252319335938,2.109712829589844,3.9074743652343753,-0.12213740458015267,0.1984732824427481,0.12213740458015267
58:01:053151,1.4253359985351564,0.44756927490234377,3.62366455078125,0.33587786259541985,-0.46564885496183206,0.5877862595419847
58:01:053233,2.036664733886719,0.748443603515625,2.3114932250976565,0.46564885496183206,-0.42748091603053434,0.16793893129770993
58:01:143348,1.2421170043945313,2.0261865234375,2.0770806884765625,0.16030534351145037,-0.3282442748091603,0.7709923664122137
58:01:143480,-0.03263214111328125,1.46335693359375,1.6010705566406251,0.5954198473282443,-0.47328244274809156,1.8396946564885495
58:01:148707,-0.587977294921875,0.8400531005859375,1.0780581665039064,0.3893129770992366,-0.1297709923664122,2.0381679389312977
58:01:234111,-0.9711804199218751,0.59396484375,0.9077124023437501,0.06870229007633588,0.04580152671755725,2.1068702290076335
58:01:234362,-1.2025991821289064,1.2412188720703126,0.04819976806640625,-0.9312977099236641,0.38167938931297707,2.0610687022900764
58:01:413219,-1.9722985839843752,2.359992370605469,-0.9008267211914063,-1.4961832061068703,0.2900763358778626,2.427480916030534
58:01:593287,-2.9892837524414064,3.1087353515625002,-1.627116394042969,-1.9923664122137403,0.7251908396946565,2.9541984732824424
58:01:605499,-3.7140765380859375,1.941163330078125,-1.3403128051757813,-2.1297709923664123,0.35877862595419846,3.5114503816793894
58:01:683593,-2.3572979736328126,-1.1047027587890625,0.1874102783203125,-2.0076335877862594,-0.6183206106870229,1.8702290076335877
58:01:683716,0.18591339111328126,-0.36643798828125,1.5609539794921876,-0.11450381679389313,-0.3511450381679389,0.8473282442748091
58:01:683799,1.0915301513671876,-0.044008483886718755,1.1322454833984374,-0.9847328244274809,-0.1297709923664122,0.45038167938931295
58:01:689429,2.15312255859375,-1.3768368530273438,1.2034973144531251,-0.0916030534351145,-0.0916030534351145,-0.45038167938931295
58:01:689549,2.2662872314453124,-0.9226812744140626,1.1154803466796877,0.9618320610687022,0.41221374045801523,-0.8702290076335878
58:01:728441,1.6923806762695313,0.5406756591796875,1.7223184204101563,0.6030534351145038,0.40458015267175573,-1.0
58:01:728610,1.5732284545898438,1.1406280517578125,2.0279827880859376,0.3282442748091603,-0.09923664122137404,-0.7938931297709924
58:01:818289,1.871408386230469,0.7457492065429688,1.7513580322265625,0.1450381679389313,0.1984732824427481,-1.0
58:01:818521,1.5480807495117188,-0.17393829345703127,1.6387921142578126,0.3129770992366412,0.366412213740458,-1.4580152671755724
58:01:863278,1.4780264282226563,-0.12124786376953126,1.5810122680664063,0.35877862595419846,0.6259541984732824,-1.8549618320610686
58:01:953391,0.9196875,0.09849517822265626,1.8453625488281251,0.3129770992366412,0.7709923664122137,-2.068702290076336
58:01:958731,0.4544549560546875,0.7014413452148438,1.9046392822265625,0.6183206106870229,0.9923664122137404,-2.312977099236641
58:01:958847,0.33260833740234375,1.6384927368164064,1.9588265991210938,0.6030534351145038,1.1832061068702289,-2.1374045801526718
58:02:043209,0.49576904296875,1.32444580078125,1.7411791992187502,1.1450381679389312,0.8244274809160305,-1.6335877862595418
58:02:096451,0.31344818115234374,0.9131011962890625,1.2690609741210939,1.8625954198473282,0.8473282442748091,-1.5267175572519083
58:02:133546,-0.3299139404296875,2.0387603759765627,1.4037808227539064,0.6030534351145038,1.0610687022900762,-1.9465648854961832
58:02:178417,0.12484039306640625,3.686833190917969,2.0600161743164063,-1.1068702290076335,0.6793893129770993,-1.8854961832061068
58:02:313581,0.9544152832031251,2.7701394653320315,3.090772705078125,-0.7404580152671756,0.282442748091603,-0.3129770992366412
58:02:358441,1.5408956909179687,1.0463241577148439,3.527265014648438,-0.12213740458015267,0.03816793893129771,0.6106870229007634
58:02:358604,1.5214361572265627,0.6553372192382813,2.389930114746094,-0.8931297709923663,-0.5725190839694656,0.2748091603053435
58:02:358730,1.0843450927734375,0.7825726318359375,1.651365966796875,-1.6946564885496183,-0.46564885496183206,0.061068702290076333
58:02:449268,0.17812957763671877,0.9966275024414063,1.8899697875976564,-1.916030534351145,-0.6335877862595419,-0.03816793893129771
58:02:538981,-1.1298504638671876,1.1639794921875,2.436632995605469,-1.3740458015267174,-1.8091603053435115,0.21374045801526717
58:02:539140,-1.62861328125,1.7908758544921877,2.2408401489257814,-1.1603053435114503,-2.030534351145038,0.35877862595419846
58:02:583389,-1.6115487670898438,1.904938659667969,2.24173828125,-1.4427480916030533,-2.2900763358778624,0.08396946564885496
58:02:628413,-1.2002041625976563,1.2457095336914064,2.2743704223632815,-1.7786259541984732,-1.9465648854961832,-0.17557251908396945
58:02:763225,-1.0939251708984377,-0.2736309814453125,3.0671218872070316,-1.6946564885496183,-1.5877862595419847,-1.3740458015267174
58:02:808914,-0.9113049316406251,-2.0267852783203124,2.249821472167969,-0.35877862595419846,-1.2061068702290076,-1.9083969465648853
58:02:853327,-2.302811279296875,-2.1653970336914066,1.9588265991210938,0.06870229007633588,0.29770992366412213,-3.633587786259542
58:02:858699,-4.785847778320313,-0.27812164306640624,1.9046392822265625,0.48854961832061067,0.1450381679389313,-2.8091603053435112
58:02:899199,-3.596421203613281,1.2265493774414062,1.6528628540039063,0.8091603053435115,-0.17557251908396945,-1.8625954198473282
58:02:988445,-0.21884490966796877,2.5569827270507814,1.2445120239257814,0.8244274809160305,-0.4427480916030534,-0.5877862595419847
58:02:988602,1.2268487548828126,2.3677761840820315,1.1564950561523437,-0.4580152671755725,-0.0916030534351145,0.7633587786259541
58:03:033377,1.392703857421875,0.7155120849609375,1.9052380371093751,-0.3969465648854962,0.17557251908396945,1.1221374045801527
58:03:078267,1.04662353515625,-0.19549346923828126,2.6267376708984376,-0.05343511450381679,0.22900763358778625,0.9236641221374046
58:03:213463,0.6200106811523438,-0.4278103637695313,2.9165350341796876,0.4351145038167939,-0.06870229007633588,1.0229007633587786
58:03:311514,0.5643264770507813,-0.4056564331054688,2.7132577514648437,0.6793893129770993,0.22900763358778625,1.1908396946564885
58:03:311665,0.6074368286132813,-0.31644195556640625,2.6872119140625,0.5114503816793893,0.20610687022900762,1.0305343511450382
58:03:311766,1.0265652465820314,-0.25357269287109374,2.8994705200195314,0.4351145038167939,0.2748091603053435,0.9694656488549618
58:03:483349,1.5127542114257813,-0.59396484375,2.7096652221679687,0.7633587786259541,0.183206106870229,0.83206106870229
58:03:483511,1.986369323730469,-1.3525872802734376,2.156715087890625,1.5267175572519083,0.5267175572519084,-0.061068702290076333
58:03:489120,1.7786013793945314,-1.495689697265625,1.7965640258789064,1.549618320610687,0.9694656488549618,-1.045801526717557
58:03:489236,0.841849365234375,-1.1726614379882814,0.9996212768554688,2.0534351145038165,1.282442748091603,-1.5725190839694656
58:03:528207,0.25117767333984375,-0.7011419677734375,0.9463320922851562,1.0534351145038168,2.5801526717557253,-2.4122137404580153
58:03:619079,-1.5923886108398437,-0.5164260864257812,1.6028668212890627,1.1068702290076335,2.9083969465648853,-2.8244274809160306
58:03:708761,-2.2573059082031253,1.274150390625,2.2480252075195315,0.8167938931297709,1.3435114503816794,-1.648854961832061
58:03:708930,-2.2872436523437503,2.2135968017578125,3.1662158203125004,0.42748091603053434,1.282442748091603,-2.0839694656488548
58:03:753247,-0.168848876953125,3.693718872070313,2.985092468261719,-0.3053435114503817,0.23664122137404578,-0.6793893129770993
58:03:801610,1.0577005004882813,2.1082159423828126,3.6338433837890625,-0.13740458015267176,0.0916030534351145,0.6030534351145038
58:03:843960,1.6905844116210937,0.7670050048828125,3.416495361328125,0.12213740458015267,-0.29770992366412213,0.6564885496183206
58:03:896203,1.9920574951171877,0.775986328125,2.4704626464843753,-0.7633587786259541,-0.25190839694656486,0.07633587786259542
58:03:936190,1.4986834716796875,0.8038284301757813,2.5734484863281253,-0.22900763358778625,-0.29770992366412213,0.10687022900763359
58:03:978134,0.9205856323242188,0.8921447753906251,2.2384451293945316,0.8015267175572519,-0.42748091603053434,1.0534351145038168
58:04:023512,0.3107537841796875,0.890947265625,1.4432986450195313,0.7404580152671756,-0.5343511450381679,1.66412213740458
58:04:158195,-0.7418572998046875,1.0762619018554689,0.8149053955078125,0.1450381679389313,-0.6259541984732824,1.9770992366412212
58:04:203600,-2.1282742309570315,0.996328125,0.04071533203125,-0.2595419847328244,-0.7786259541984732,2.6030534351145036
58:04:208944,-2.1603076171875,0.9304650878906251,-0.7945477294921875,-0.8091603053435115,-0.10687022900763359,2.4427480916030535
58:04:209053,-2.7821145629882813,1.638193359375,-1.18553466796875,-1.381679389312977,0.3511450381679389,2.541984732824427
58:04:250419,-3.5581008911132814,1.7971627807617188,-1.1948153686523437,-1.816793893129771,0.5038167938931297,3.1526717557251906
58:04:473470,-3.472478942871094,1.2855267333984375,0.21824615478515627,-1.6564885496183206,0.3511450381679389,3.2671755725190836
58:04:486616,-2.3806494140625003,-1.2163705444335937,1.0011181640625,-2.068702290076336,-1.0687022900763359,1.618320610687023
58:04:563905,0.47331573486328127,-1.4801220703125,1.5627502441406251,0.1984732824427481,-0.7404580152671756,0.6564885496183206
58:04:564070,2.2641915893554687,-0.45026367187500005,0.83586181640625,-0.3969465648854962,-0.33587786259541985,0.25190839694656486
58:04:564183,2.425855407714844,-0.9645941162109376,1.1481124877929687,-0.061068702290076333,0.15267175572519084,-0.03816793893129771
58:04:608573,2.3725662231445312,-0.5502557373046876,1.483714599609375,0.4198473282442748,0.45038167938931295,-0.8854961832061068
58:04:608709,1.65016845703125,0.4305047607421875,1.7860858154296877,0.9007633587786259,0.35877862595419846,-1.1374045801526718
58:04:653562,1.488504638671875,0.6415658569335938,1.5531701660156252,0.46564885496183206,0.282442748091603,-0.7557251908396946
58:04:698417,1.8696121215820314,0.06586303710937501,1.471739501953125,0.08396946564885496,0.40458015267175573,-1.129770992366412
58:04:788223,1.6175363159179688,-0.6876699829101562,1.4352154541015625,0.4427480916030534,0.42748091603053434,-1.564885496183206
58:04:833164,1.4986834716796875,-0.4700225830078125,1.4771282958984375,0.7633587786259541,0.8091603053435115,-1.8931297709923662
58:04:881526,0.8568182373046875,0.09190887451171875,1.6531622314453125,0.48854961832061067,0.7251908396946565,-2.183206106870229
58:04:923400,0.7259902954101562,0.8065228271484376,1.6450790405273439,1.083969465648855,0.7022900763358778,-1.9694656488549618
58:04:968226,0.6523434448242188,1.3190570068359375,1.13763427734375,0.7480916030534351,1.2061068702290076,-2.312977099236641
58:05:103944,0.31644195556640625,1.5103591918945314,1.66693359375,0.6870229007633587,0.6793893129770993,-1.648854961832061
58:05:148450,0.0149688720703125,0.5583389282226563,1.5055691528320314,1.1526717557251909,0.8396946564885496,-1.7404580152671756
58:05:148808,-1.0978170776367189,2.118394775390625,1.6845968627929688,0.7251908396946565,0.4427480916030534,-2.1221374045801524
58:05:284009,0.3550616455078125,4.0655456542968755,1.9037411499023438,-0.6641221374045801,0.20610687022900762,-1.3435114503816794
58:05:303601,1.349294128417969,2.8198361206054687,2.1501287841796874,-0.7709923664122137,0.19083969465648853,0.11450381679389313
58:05:381698,2.112706604003906,0.7696994018554688,3.2051348876953125,0.7480916030534351,0.4351145038167939,0.5572519083969465
58:05:418223,2.117197265625,0.7556286621093751,2.5740472412109376,-0.25190839694656486,0.09923664122137404,0.13740458015267176
58:05:463145,1.2328363037109376,1.725312194824219,2.31837890625,-1.7022900763358777,-0.030534351145038167,-0.15267175572519084
58:05:468437,-0.15148498535156252,1.9872674560546877,1.9342776489257814,-2.282442748091603,-0.9007633587786259,0.35877862595419846
58:05:468565,-1.1717633056640626,1.8696121215820314,1.8902691650390626,-1.916030534351145,-1.282442748091603,0.4809160305343511
58:05:598343,-1.2678634643554687,1.4528787231445313,1.6366964721679689,-1.4580152671755724,-1.6793893129770991,0.5114503816793893
58:05:603917,-1.1385324096679688,1.8744021606445314,1.5585589599609375,-1.381679389312977,-1.748091603053435,0.3511450381679389
58:05:604155,-0.7265890502929688,1.505269775390625,1.57352783203125,-1.5038167938931297,-1.816793893129771,0.17557251908396945
58:05:643162,0.12034973144531251,0.9517208862304688,1.850152587890625,-1.8091603053435115,-1.1221374045801527,-0.4961832061068702
58:05:778856,-0.22842498779296877,-0.9253756713867188,3.234473876953125,-1.4885496183206106,-1.0305343511450382,-1.4809160305343512
58:05:796421,-0.7403604125976563,-2.2061123657226562,2.754571838378906,-0.20610687022900762,-0.4427480916030534,-2.3664122137404577
58:05:823253,-3.0596374511718754,-2.0261865234375,2.2106030273437502,0.1297709923664122,0.183206106870229,-3.519083969465649
58:05:868669,-5.534291381835938,-0.17962646484375,1.4073733520507814,0.7099236641221374,0.40458015267175573,-3.0534351145038165
58:05:915563,-3.1680120849609374,2.3773562622070314,0.9128018188476563,0.5954198473282443,0.2213740458015267,-1.6870229007633588
58:05:958507,0.4032614135742188,2.9871881103515627,1.522034912109375,0.5038167938931297,-0.2900763358778626,0.061068702290076333
58:06:113703,1.3630654907226563,1.422342224121094,1.5166461181640625,-0.2595419847328244,-0.38167938931297707,0.7633587786259541
58:06:228787,1.6795074462890627,0.27722351074218754,2.095941467285156,0.05343511450381679,0.04580152671755725,0.6030534351145038
58:06:228956,1.0017169189453126,-0.027542724609375003,2.4285498046875,0.10687022900763359,0.09923664122137404,0.9389312977099237
58:06:229060,0.643062744140625,-0.34099090576171875,2.5776397705078127,0.2748091603053435,0.05343511450381679,1.129770992366412
58:06:273892,0.5721102905273437,-0.4110452270507813,2.353106689453125,0.366412213740458,0.2900763358778626,1.1374045801526718
58:06:279577,0.6697073364257813,-0.487386474609375,2.278561706542969,0.4351145038167939,0.6183206106870229,0.9236641221374046
58:06:364009,1.400787048339844,-0.45744873046875,2.258802795410156,0.46564885496183206,0.8244274809160305,0.6335877862595419
58:06:408884,1.36755615234375,-0.8352630615234375,2.150428161621094,1.1603053435114503,0.4961832061068702,0.2900763358778626
58:06:453263,1.8977536010742189,-0.7825726318359375,1.982776794433594,1.4961832061068703,1.4885496183206106,-0.17557251908396945
58:06:458620,0.9645941162109376,-0.6248007202148438,1.8435662841796876,1.9312977099236641,1.2671755725190839,-0.9312977099236641
58:06:498220,0.39278320312500004,-0.355660400390625,1.6687298583984376,1.4427480916030533,1.8015267175572518,-1.6793893129770991
58:06:588427,-0.77359130859375,-0.40805145263671877,2.23455322265625,1.2900763358778626,2.3664122137404577,-2.2061068702290076
58:06:678291,-2.0552261352539065,0.8858578491210938,2.182760925292969,0.8167938931297709,1.297709923664122,-1.9236641221374045
58:06:769114,-1.4780264282226563,2.0450473022460938,2.8997698974609376,0.183206106870229,1.5114503816793892,-1.9694656488549618
58:06:813410,-0.21046234130859376,2.6491909790039063,3.0970596313476566,-0.13740458015267176,0.22900763358778625,-0.46564885496183206
58:06:813637,1.1864328002929687,1.6393908691406252,3.151246948242188,-0.061068702290076333,-0.022900763358778626,0.1984732824427481
58:06:813791,1.8935623168945312,0.7379653930664063,3.1024484252929687,0.366412213740458,0.0,0.4809160305343511
58:06:903285,1.62142822265625,1.22385498046875,2.71834716796875,0.19083969465648853,-0.32061068702290074,0.47328244274809156
58:06:993935,0.8164022827148438,1.7645306396484375,1.9642153930664064,-0.24427480916030533,-0.9541984732824427,1.0
58:06:994125,0.23441253662109376,1.110091552734375,1.3897100830078126,0.15267175572519084,-0.7251908396946565,1.580152671755725
58:07:083158,-0.1293310546875,0.5978567504882812,0.9660910034179688,0.366412213740458,-0.3282442748091603,1.900763358778626
58:07:083362,-0.28889923095703124,0.58198974609375,0.8415499877929687,-0.26717557251908397,0.08396946564885496,1.83206106870229
58:07:128159,-1.052611083984375,1.3373190307617189,-0.08472381591796875,-1.16793893129771,-0.15267175572519084,1.8473282442748091
58:07:218962,-1.3705499267578125,1.7094451904296877,-0.49247589111328127,-1.2290076335877862,0.1984732824427481,2.045801526717557
58:07:353297,-2.182162170410156,2.635718994140625,-0.7670050048828125,-1.2519083969465647,0.40458015267175573,2.519083969465649
58:07:443887,-2.1312680053710937,2.5740472412109376,-0.6810836791992188,-1.366412213740458,0.5954198473282443,2.7709923664122136
58:07:449264,-2.2746697998046876,1.466949462890625,0.6499484252929688,-1.6106870229007633,-0.030534351145038167,2.5801526717557253
58:07:578594,-0.3993695068359375,-1.9016455078125,0.8214916992187501,-1.6717557251908397,-0.45038167938931295,1.129770992366412
58:07:624028,0.9178912353515626,0.0437091064453125,1.904938659667969,0.0916030534351145,-0.2748091603053435,0.5877862595419847
58:07:803055,1.5471826171875,-1.7504598999023437,-0.4631369018554688,-1.534351145038168,-0.7175572519083969,0.09923664122137404
58:07:803218,2.6934988403320315,-0.13651611328125002,1.5911911010742188,2.145038167938931,0.6870229007633587,-1.1603053435114503
58:07:819737,2.4707620239257815,2.3842419433593753,2.1010308837890626,-0.5954198473282443,-0.0916030534351145,0.37404580152671757
58:07:819912,2.9267138671875,0.08053253173828126,2.452200622558594,-0.5877862595419847,0.061068702290076333,-0.282442748091603
58:07:850905,2.3614892578125,-0.9205856323242188,2.1980291748046876,0.5419847328244275,0.282442748091603,-0.648854961832061
58:07:893392,1.7669256591796876,-0.6948550415039063,1.7501605224609376,0.732824427480916,0.20610687022900762,-1.0076335877862594
58:07:984126,1.5417938232421875,-0.26734405517578125,1.4744338989257812,0.3893129770992366,0.19083969465648853,-1.2213740458015268
58:07:984274,1.3145663452148437,-0.11825408935546876,1.4349160766601563,0.3969465648854962,0.21374045801526717,-1.2671755725190839
58:07:984360,1.035845947265625,-0.29338989257812503,1.3163626098632812,0.732824427480916,0.2900763358778626,-1.564885496183206
58:07:984458,0.6331832885742188,-0.5143304443359376,1.1621832275390627,0.916030534351145,0.41221374045801523,-1.9770992366412212
58:08:073423,0.099393310546875,0.0496966552734375,1.1978091430664064,1.0534351145038168,0.3893129770992366,-2.145038167938931
58:08:073617,0.2520758056640625,0.8595126342773438,0.5846841430664063,0.5954198473282443,0.7175572519083969,-2.610687022900763
58:08:163238,-0.19010467529296876,1.2271481323242188,1.337618408203125,1.2900763358778626,0.9770992366412213,-1.8244274809160304
58:08:254019,-1.0277627563476563,0.9008267211914063,1.6839981079101562,1.2442748091603053,0.916030534351145,-2.297709923664122
58:08:254170,-1.4412030029296876,3.7044964599609376,1.572330322265625,-0.9923664122137404,1.0076335877862594,-2.786259541984733
58:08:254277,0.0425115966796875,4.342469787597657,2.6527835083007814,-0.48854961832061067,0.2595419847328244,-0.8549618320610687
58:08:259804,1.5169454956054689,1.875000915527344,3.184178466796875,0.5038167938931297,0.23664122137404578,0.6030534351145038
58:08:343299,2.1348605346679688,0.9912387084960937,3.1464569091796877,0.4961832061068702,-0.1297709923664122,0.41221374045801523
58:08:390633,1.8902691650390626,1.0660830688476564,2.30161376953125,-0.48854961832061067,-0.3282442748091603,0.3053435114503817
58:08:613183,1.0406359863281252,1.6301101684570314,1.9055374145507813,-1.5954198473282442,-0.45038167938931295,0.183206106870229
58:08:613419,-0.21824615478515627,1.7486636352539064,1.3238470458984375,-2.183206106870229,-0.8778625954198473,0.6793893129770993
58:08:704021,-1.1669732666015626,1.6639398193359376,1.5546670532226563,-1.9312977099236641,-1.3511450381679388,0.7709923664122137
58:08:793214,-1.17116455078125,1.7648300170898439,1.3762380981445312,-1.816793893129771,-1.7709923664122136,0.7709923664122137
58:08:793355,-0.2859054565429688,1.5705340576171876,1.3858181762695314,-1.4580152671755724,-1.8091603053435115,0.46564885496183206
58:08:793440,0.6427633666992187,1.2630734252929687,1.5576608276367188,-2.198473282442748,-1.1603053435114503,0.061068702290076333
58:08:793536,0.6424639892578126,0.128133544921875,2.651585998535156,-2.381679389312977,-0.37404580152671757,-0.7709923664122137
58:08:883977,-0.7732919311523437,-1.8989511108398438,3.516487426757813,-0.5190839694656488,-0.6870229007633587,-1.8244274809160304
58:08:884153,-2.0342697143554687,-2.4746539306640627,2.4189697265625,0.8702290076335878,-0.2595419847328244,-2.648854961832061
58:08:974305,-4.102069702148437,-1.0642868041992188,2.352807312011719,0.183206106870229,-0.29770992366412213,-3.3664122137404577
58:09:071848,-4.05955810546875,0.24758514404296877,1.8507513427734377,0.5038167938931297,0.07633587786259542,-2.5801526717557253
58:09:072013,-2.0683987426757815,1.9142193603515627,1.6384927368164064,1.4198473282442747,-0.5038167938931297,-1.3893129770992365
58:09:153255,0.5969586181640625,2.6632617187500003,0.846639404296875,0.6793893129770993,-0.6106870229007634,0.22900763358778625
58:09:153435,1.5621514892578126,1.1873309326171875,0.9229806518554688,-0.5801526717557252,-0.2213740458015267,0.6564885496183206
58:09:153556,1.7953665161132812,-0.00089813232421875,1.854942626953125,0.1297709923664122,0.282442748091603,0.5267175572519084
58:09:243915,1.2247531127929687,-0.023950195312500002,2.1737796020507814,0.1297709923664122,0.282442748091603,0.6564885496183206
58:09:244188,0.7882608032226562,-0.056282958984375006,2.305206298828125,0.10687022900763359,0.37404580152671757,0.8091603053435115
58:09:249536,0.6158193969726563,-0.2029779052734375,2.5824298095703124,0.48854961832061067,0.42748091603053434,0.8931297709923663
58:09:333470,0.9621990966796875,-0.21824615478515627,2.4611819458007815,0.564885496183206,0.549618320610687,0.7557251908396946
58:09:513959,1.2334350585937501,-0.3598516845703125,2.4189697265625,0.5801526717557252,0.5267175572519084,0.5038167938931297
58:09:514097,1.8321899414062501,-0.46074188232421875,2.3243664550781253,0.4351145038167939,1.083969465648855,0.08396946564885496
58:09:533066,1.9300863647460937,-0.7313790893554688,2.1549188232421876,1.0763358778625953,1.3282442748091603,-0.09923664122137404
58:09:603343,1.4429992675781251,-1.063089294433594,1.847757568359375,1.648854961832061,1.3358778625954197,-0.5190839694656488
58:09:693607,0.8942404174804688,-0.700543212890625,1.803150329589844,1.6793893129770991,1.916030534351145,-1.3511450381679388
58:09:699021,-0.34637969970703125,-0.3514691162109375,1.9237994384765627,1.198473282442748,1.4427480916030533,-1.6793893129770991
58:09:699194,-0.99393310546875,0.11765533447265626,2.4956103515625,0.6717557251908397,1.7022900763358777,-2.2442748091603053
58:09:699310,-1.9052380371093751,1.3184582519531252,2.2408401489257814,0.38167938931297707,1.0610687022900762,-2.145038167938931
58:09:783405,-0.7747888183593751,3.075205078125,3.011437683105469,-0.7022900763358778,1.534351145038168,-1.7709923664122136
58:09:873239,0.032931518554687504,1.8744021606445314,4.25115966796875,-0.8244274809160305,0.25190839694656486,-0.29770992366412213
58:09:921526,1.13763427734375,0.6607260131835938,4.076323242187501,-0.23664122137404578,-0.9694656488549618,0.46564885496183206
58:09:921685,2.036065979003906,0.0748443603515625,2.3941213989257815,0.0916030534351145,-1.2900763358778626,0.7404580152671756
58:10:098237,2.5899142456054687,-0.076640625,1.9261944580078125,0.6412213740458015,-0.24427480916030533,0.183206106870229
58:10:145494,1.6516653442382814,1.9770886230468752,2.05253173828125,1.129770992366412,-0.19083969465648853,0.7786259541984732
58:10:150880,-0.4245172119140625,2.8770172119140627,1.0376422119140625,0.8091603053435115,-0.4580152671755725,2.3587786259541983
58:10:150998,-0.9535171508789063,1.625020751953125,0.5508544921875,-0.7633587786259541,0.29770992366412213,1.9694656488549618
58:10:151076,-1.1217672729492187,0.8214916992187501,0.3921844482421875,-1.3053435114503815,0.1297709923664122,1.748091603053435
58:10:234288,-0.7765850830078126,0.852626953125,0.17004638671875,-1.0763358778625953,0.21374045801526717,1.732824427480916
58:10:433423,-0.8831634521484375,2.2845492553710938,-0.3158432006835938,-1.099236641221374,0.1984732824427481,1.8396946564885495
58:10:433582,-1.1678713989257814,3.40332275390625,-0.7020401000976563,-1.1603053435114503,0.4351145038167939,2.229007633587786
58:10:548524,-2.142943725585938,2.8922854614257814,-0.5260061645507813,-1.6793893129770991,0.8091603053435115,2.6412213740458013
58:10:548683,-2.1040246582031252,-1.3513897705078126,-0.013471984863281251,-2.16030534351145,-0.8244274809160305,1.4198473282442747
58:10:593476,0.3347039794921875,-1.0400372314453126,0.6295907592773438,-0.5572519083969465,-0.6106870229007634,0.6259541984732824
58:10:598764,1.5510745239257813,-0.3469784545898438,0.9912387084960937,-0.6335877862595419,-0.26717557251908397,0.6106870229007634
58:10:598884,2.429447937011719,-0.7918533325195313,1.6088543701171876,-0.20610687022900762,-0.24427480916030533,-0.06870229007633588
58:10:683264,2.4575894165039065,-0.37661682128906254,1.8483563232421876,0.7175572519083969,-0.10687022900763359,-0.35877862595419846
58:10:729137,2.201921081542969,0.017962646484375,1.648970947265625,0.2748091603053435,-0.10687022900763359,-0.5954198473282443
58:10:729301,2.1845571899414065,0.12663665771484375,1.751657409667969,0.15267175572519084,0.10687022900763359,-0.8702290076335878
58:10:863368,2.109413452148438,0.3011737060546875,1.9309844970703125,0.20610687022900762,0.1297709923664122,-0.8625954198473282
58:10:882369,1.9318826293945313,0.15088623046875002,2.036964111328125,0.3129770992366412,0.05343511450381679,-1.0305343511450382
58:10:882558,1.6747174072265625,0.1149609375,1.9591259765625002,0.48854961832061067,0.061068702290076333,-1.1832061068702289
58:10:910690,1.4199472045898438,-0.26494903564453126,1.8471588134765626,0.5419847328244275,-0.007633587786259542,-1.3969465648854962
58:10:953671,0.9849517822265625,-0.3607498168945313,1.646575927734375,0.564885496183206,0.03816793893129771,-1.732824427480916
58:11:046519,0.5840853881835938,-0.035326538085937505,1.3322296142578125,0.4427480916030534,0.16793893129770993,-2.0610687022900764
58:11:088321,0.45954437255859376,0.1742376708984375,1.1121871948242188,0.48854961832061067,0.4809160305343511,-2.2442748091603053
58:11:088458,0.0461041259765625,0.5337899780273437,1.2361294555664064,0.7480916030534351,1.0763358778625953,-2.2748091603053435
58:11:133216,-1.2217593383789063,1.0295590209960939,1.9261944580078125,0.8244274809160305,0.9312977099236641,-2.5572519083969465
58:11:223222,-1.1466156005859376,3.450624389648438,1.4675482177734376,-0.8244274809160305,1.9770992366412212,-3.0
58:11:313271,-0.6903643798828125,4.091591491699219,2.978206787109375,-0.34351145038167935,0.7938931297709924,-1.5267175572519083
58:11:448899,0.499361572265625,2.69439697265625,3.7916152954101565,-0.5038167938931297,0.2595419847328244,0.08396946564885496
58:11:449228,1.5822097778320314,1.471739501953125,3.502716064453125,-0.5190839694656488,-0.7099236641221374,0.16030534351145037
58:11:493408,1.6238232421875,1.572030944824219,1.708846435546875,-1.5038167938931297,-0.9694656488549618,0.2213740458015267
58:11:499290,0.9681866455078125,1.390308837890625,1.3642630004882814,-2.0534351145038165,-0.5419847328244275,0.06870229007633588
58:11:539232,0.154478759765625,1.1220666503906251,2.036365356445313,-1.3587786259541985,-0.8625954198473282,0.3282442748091603
58:11:584087,-0.30326934814453127,0.9675878906250001,2.30640380859375,-0.5572519083969465,-1.3511450381679388,0.48854961832061067
58:11:589437,-0.5023553466796875,1.304088134765625,2.0166064453125,-0.8396946564885496,-1.648854961832061,0.4961832061068702
58:11:720703,-0.7179071044921875,1.538800048828125,2.41657470703125,-1.4045801526717556,-1.6335877862595418,-0.282442748091603
58:11:720836,-1.3732443237304688,1.4004876708984375,2.7303222656250004,-1.1068702290076335,-1.9236641221374045,-0.5343511450381679
58:11:763197,-1.3837225341796875,0.5421725463867187,2.45489501953125,-0.6641221374045801,-1.83206106870229,-0.6793893129770993
58:11:808577,-0.8379574584960938,-0.33560211181640626,2.465373229980469,-0.9312977099236641,-1.3511450381679388,-1.1450381679389312
58:11:898911,-0.8535250854492188,-1.6292120361328126,2.43094482421875,-0.5801526717557252,-0.8244274809160305,-2.0
58:11:943326,-2.415377197265625,-1.721719665527344,2.3510110473632815,0.4961832061068702,-0.2748091603053435,-3.0
58:11:991147,-3.7508999633789064,-0.587977294921875,1.3184582519531252,0.9312977099236641,-0.16793893129770993,-3.0229007633587783
58:12:123311,-2.2384451293945316,0.689765625,0.9056167602539062,1.5572519083969465,-0.48854961832061067,-1.7786259541984732
58:12:123469,0.1347198486328125,1.184337158203125,0.2628533935546875,2.427480916030534,-0.5572519083969465,-0.0916030534351145
58:12:173574,1.3184582519531252,1.2807366943359375,0.39577697753906255,0.13740458015267176,0.2748091603053435,1.114503816793893
58:12:173749,1.1250604248046876,0.00089813232421875,1.3789324951171875,-0.7175572519083969,0.6259541984732824,0.7022900763358778
58:12:213185,0.7963439941406251,-0.16375946044921877,2.2836511230468752,0.2900763358778626,0.9465648854961831,0.6870229007633587
58:12:348496,0.8038284301757813,0.3811074829101563,2.538421325683594,0.06870229007633588,1.1374045801526718,0.6106870229007634
58:12:438296,0.6999444580078126,0.3993695068359375,2.652184753417969,-0.4198473282442748,0.8931297709923663,0.6183206106870229
58:12:438576,0.9633966064453126,0.31853759765625,2.451003112792969,-0.3893129770992366,1.1526717557251909,0.7786259541984732
58:12:443995,0.8460406494140625,0.34907409667968753,2.6746380615234377,-0.5038167938931297,0.8854961832061068,0.9923664122137404
58:12:444178,1.4636563110351564,-0.6741979980468751,2.3129901123046874,0.5038167938931297,0.9847328244274809,0.20610687022900762
58:12:485910,1.4301260375976563,-0.7583230590820312,2.4336392211914064,0.7709923664122137,1.3511450381679388,-0.3053435114503817
58:12:618181,1.076561279296875,-0.9442364501953125,2.1342617797851564,2.145038167938931,0.9770992366412213,-0.9007633587786259
58:12:663537,0.7520361328125,-0.38050872802734376,1.6579522705078127,2.030534351145038,1.381679389312977,-1.7099236641221374
58:12:753362,-0.5035528564453126,0.25357269287109374,2.0049307250976565,1.580152671755725,1.6030534351145038,-1.8473282442748091
58:12:851913,-0.8810678100585938,1.603465576171875,2.113604736328125,0.5801526717557252,1.3893129770992365,-2.1221374045801524
58:12:852067,-0.667012939453125,2.51237548828125,3.2392639160156254,-0.061068702290076333,1.3969465648854962,-1.6870229007633588
58:12:852175,0.542471923828125,2.602188720703125,3.4108071899414063,-0.5877862595419847,0.5038167938931297,-0.48854961832061067
58:12:978273,1.0388397216796876,1.44898681640625,4.150868225097656,0.4580152671755725,-0.11450381679389313,0.48854961832061067
58:12:978446,1.8729052734375,0.9580078125,2.847378845214844,0.15267175572519084,0.0,0.15267175572519084
58:13:025714,1.701661376953125,1.281036071777344,2.528541870117188,-0.6335877862595419,-0.19083969465648853,-0.1450381679389313
58:13:077432,0.6358776855468751,1.83697998046875,1.8998492431640626,-0.8015267175572519,-0.9083969465648855,0.13740458015267176
58:13:113935,-0.008382568359375,1.0594967651367189,1.5477813720703126,-0.10687022900763359,-1.0687022900763359,1.5267175572519083
58:13:203306,0.05239105224609375,0.5098397827148438,1.4768289184570313,0.38167938931297707,-0.5114503816793893,1.5954198473282442
58:13:203444,-0.5367837524414063,1.1391311645507813,0.959205322265625,-0.022900763358778626,-0.6641221374045801,1.9465648854961832
58:13:251120,-1.2612771606445312,1.7546511840820314,-0.17064514160156252,-0.8091603053435115,-0.549618320610687,2.045801526717557
58:13:296069,-1.5343093872070312,2.022893371582031,-0.6762936401367188,-0.9312977099236641,-0.16030534351145037,2.198473282442748
58:13:296257,-2.22976318359375,2.5776397705078127,-0.7301815795898438,-1.0229007633587786,-0.007633587786259542,2.519083969465649
58:13:428256,-2.286944274902344,1.7753082275390626,-0.3610491943359375,-1.16793893129771,0.3893129770992366,2.8396946564885495
58:13:518514,-1.6420852661132814,0.18561401367187502,0.4796026611328125,-1.8091603053435115,0.09923664122137404,2.312977099236641
58:13:518744,-0.01047821044921875,-1.6384927368164064,0.9442364501953125,-1.5038167938931297,-0.7251908396946565,0.9618320610687022
58:13:563455,2.0863613891601562,-1.38192626953125,1.4867083740234375,-0.15267175572519084,-0.007633587786259542,0.4809160305343511
58:13:568904,2.578837280273438,-0.57719970703125,2.092049560546875,-0.26717557251908397,0.2595419847328244,-0.1297709923664122
58:13:698166,2.6000930786132814,-0.08831634521484376,2.4276516723632815,-0.07633587786259542,-0.07633587786259542,-0.1984732824427481
58:13:703511,2.664459228515625,0.1850152587890625,2.341131591796875,0.061068702290076333,0.08396946564885496,-0.3282442748091603
58:13:703707,2.4273522949218753,0.29309051513671874,2.394720153808594,-0.03816793893129771,0.0916030534351145,-0.6030534351145038
58:13:743152,2.3366409301757813,0.4436773681640625,2.4950115966796877,0.12213740458015267,-0.1297709923664122,-0.5114503816793893
58:13:788386,2.1537213134765625,0.22004241943359376,2.2396426391601563,0.3053435114503817,-0.16030534351145037,-0.7480916030534351
58:13:833326,2.057022399902344,0.2859054565429688,2.0136126708984374,0.41221374045801523,-0.015267175572519083,-1.0305343511450382
58:13:968526,1.5846047973632813,0.040415954589843754,1.7381854248046875,0.6793893129770993,-0.08396946564885496,-0.9083969465648855
58:13:986997,1.3403128051757813,-0.7026388549804687,1.3774356079101564,0.9236641221374046,0.05343511450381679,-1.366412213740458
58:14:013369,0.8867559814453125,-1.0792556762695313,1.1487112426757813,0.8244274809160305,0.25190839694656486,-1.9083969465648853
58:14:058276,0.2520758056640625,-1.0002200317382812,1.217867431640625,0.7022900763358778,0.29770992366412213,-2.381679389312977
58:14:284295,0.09669891357421875,-0.3311114501953125,0.8268804931640625,0.7099236641221374,0.7175572519083969,-3.030534351145038
58:14:299814,-0.3442840576171875,0.9397457885742188,1.2981005859375,1.0305343511450382,0.8931297709923663,-2.2213740458015265
58:14:328661,-0.6068380737304688,0.9648934936523438,1.9510427856445314,0.8167938931297709,0.7099236641221374,-2.1221374045801524
58:14:328833,-1.7729132080078125,2.7536737060546876,1.6295114135742188,-0.1984732824427481,0.26717557251908397,-2.5572519083969465
58:14:329047,-0.8020321655273438,4.514312438964844,2.3330484008789063,-0.38167938931297707,-0.183206106870229,-1.6335877862595418
58:14:373507,1.3223501586914064,3.289259948730469,2.246228942871094,0.0916030534351145,0.10687022900763359,0.8702290076335878
58:14:509655,1.5160473632812501,1.3915063476562501,2.8830047607421876,-0.26717557251908397,0.15267175572519084,0.6870229007633587
58:14:553109,1.0891351318359375,1.8770965576171876,1.914818115234375,-1.9083969465648853,-0.6030534351145038,0.1984732824427481
58:14:553252,0.34368530273437503,2.090552673339844,1.6337026977539064,-2.4198473282442747,-0.5114503816793893,0.549618320610687
58:14:553353,-0.5098397827148438,1.7702188110351564,1.841470642089844,-1.7709923664122136,-1.0381679389312977,0.7480916030534351
58:14:643874,-0.7610174560546875,1.4130615234375001,1.9896624755859376,-1.3053435114503815,-1.3206106870229006,0.7862595419847328
58:14:688277,-0.8666976928710938,1.2576846313476564,1.8570382690429688,-1.6564885496183206,-1.6259541984732824,0.5114503816793893
58:14:733897,-0.4005670166015625,0.8415499877929687,1.8776953125,-1.816793893129771,-1.3358778625954197,-0.2595419847328244
58:14:739564,0.32482452392578126,0.427510986328125,2.4001089477539064,-1.8015267175572518,-0.7862595419847328,-0.7251908396946565
58:14:914224,0.19699035644531251,-1.0678793334960939,3.2650103759765625,-1.4351145038167938,-0.7022900763358778,-1.5419847328244274
58:15:093336,-1.0367440795898437,-2.2204824829101564,3.4015264892578125,-0.17557251908396945,-0.061068702290076333,-2.7557251908396947
58:15:108449,-4.664599914550782,-1.02267333984375,2.519560546875,1.5114503816793892,-0.38167938931297707,-3.5114503816793894
58:15:108628,-4.887336730957031,1.1256591796875,1.1056008911132813,2.1221374045801524,-1.2442748091603053,-2.198473282442748
58:15:140638,-1.2352313232421877,1.910028076171875,-0.17453704833984376,2.1908396946564883,-1.366412213740458,-0.6259541984732824
58:15:140838,1.0053094482421876,1.8468594360351565,-0.645457763671875,0.3053435114503817,0.4351145038167939,0.9465648854961831
58:15:273487,0.678988037109375,0.1945953369140625,0.9340576171875,-0.5419847328244275,0.8167938931297709,0.9541984732824427
58:15:273730,0.7478448486328125,-0.5825885009765626,2.2001248168945313,0.3129770992366412,0.6564885496183206,0.6946564885496183
58:15:363163,0.6855743408203125,-0.4068539428710938,3.114722900390625,0.83206106870229,0.5801526717557252,0.4351145038167939
58:15:363329,0.8487350463867188,-0.21794677734375,3.0895751953125004,0.9236641221374046,0.32061068702290074,0.366412213740458
58:15:454027,1.3442047119140625,0.16076568603515626,2.807861022949219,0.3893129770992366,0.9389312977099237,0.25190839694656486
58:15:454238,1.5471826171875,0.22273681640625,2.8593539428710937,-0.183206106870229,0.7633587786259541,0.4351145038167939
58:15:460243,1.7968634033203126,-0.22543121337890626,2.578537902832031,-0.6183206106870229,1.0229007633587786,0.22900763358778625
58:15:543233,1.6914825439453125,-1.3103750610351563,2.0040325927734375,0.5572519083969465,1.083969465648855,-0.5343511450381679
58:15:633549,1.47533203125,-0.9957293701171875,1.6941769409179688,1.2671755725190839,1.9465648854961832,-1.0229007633587786
58:15:633668,0.5074447631835938,-0.28500732421875,1.4708413696289062,1.465648854961832,1.5190839694656488,-1.16793893129771
58:15:633748,0.0724493408203125,0.12484039306640625,1.847757568359375,0.9541984732824427,1.8854961832061068,-1.6030534351145038
58:15:678408,-0.8753796386718751,0.3209326171875,2.041754150390625,1.366412213740458,1.4885496183206106,-1.5877862595419847
58:15:678568,-1.69806884765625,1.542093200683594,3.0048513793945313,1.099236641221374,1.5725190839694656,-2.4580152671755724
58:15:858222,-0.6891668701171876,4.105662231445312,3.147654418945313,-0.5954198473282443,0.6183206106870229,-1.1603053435114503
58:15:858440,0.4808001708984375,2.436632995605469,4.0918908691406255,-0.22900763358778625,-0.04580152671755725,0.3053435114503817
58:15:903373,1.657353515625,1.4241384887695314,3.450923767089844,0.06870229007633588,-0.3969465648854962,0.40458015267175573
58:15:993808,1.6399896240234375,1.4732363891601563,2.9150381469726563,0.23664122137404578,-0.564885496183206,0.8549618320610687
58:15:993948,1.392703857421875,1.349294128417969,2.085762634277344,0.3511450381679389,-0.5419847328244275,0.8931297709923663
58:15:994258,0.3445834350585938,1.5837066650390625,1.2843292236328125,0.15267175572519084,-0.6335877862595419,1.2900763358778626
58:16:083481,-0.3131488037109375,1.1463162231445314,0.9202862548828126,-0.007633587786259542,-0.17557251908396945,1.4809160305343512
58:16:128870,-1.1768527221679688,1.53041748046875,0.5760021972656251,-0.06870229007633588,-0.1297709923664122,1.7709923664122136
58:16:134212,-1.4085708618164063,2.027084655761719,0.096998291015625,-0.5877862595419847,0.5038167938931297,2.1297709923664123
58:16:176185,-2.552791442871094,2.1207897949218752,-0.11166778564453125,-0.9618320610687022,0.2748091603053435,2.595419847328244
58:16:353364,-2.644999694824219,1.9722985839843752,-0.5095404052734376,-1.2748091603053435,0.42748091603053434,2.8244274809160306
58:16:400669,-2.386636962890625,1.0606942749023438,-0.7918533325195313,-1.4351145038167938,0.7404580152671756,3.068702290076336
58:16:489011,-0.9840536499023438,-2.0348684692382815,0.4613406372070313,-0.9694656488549618,0.03816793893129771,1.2671755725190839
58:16:489203,0.015867004394531252,-2.5967999267578126,0.9732760620117188,-0.916030534351145,-0.22900763358778625,0.9007633587786259
58:16:489318,1.7881814575195314,-1.7780026245117189,1.97110107421875,0.2595419847328244,0.06870229007633588,-0.6259541984732824
58:16:534854,2.264490966796875,0.7065307617187501,2.4381298828125,0.16030534351145037,-0.23664122137404578,0.08396946564885496
58:16:540200,2.903661804199219,0.4110452270507813,2.2662872314453124,-0.3129770992366412,-0.32061068702290074,-0.17557251908396945
58:16:623212,2.8366012573242188,-0.16435821533203127,2.1609063720703126,0.07633587786259542,-0.08396946564885496,-0.6030534351145038
58:16:668125,2.4111859130859377,0.3960763549804688,2.2076092529296876,0.4427480916030534,-0.16030534351145037,-0.6259541984732824
58:16:713480,2.2809567260742187,0.8652008056640625,2.0303778076171874,-0.015267175572519083,-0.38167938931297707,-0.46564885496183206
58:16:803269,2.1309686279296876,0.5745053100585937,1.9498452758789064,-0.030534351145038167,-0.366412213740458,-0.6641221374045801
58:16:901377,1.9941531372070314,-0.0544866943359375,1.7896783447265625,0.32061068702290074,-0.3053435114503817,-0.7480916030534351
58:16:901578,1.8306930541992188,-0.4340972900390625,1.5816110229492188,0.32061068702290074,-0.061068702290076333,-1.0763358778625953
58:16:938507,1.5762222290039063,-0.942440185546875,1.4639556884765625,0.022900763358778626,0.2900763358778626,-1.6259541984732824
58:16:983327,0.9684860229492188,-0.863404541015625,1.36276611328125,0.34351145038167935,0.3969465648854962,-2.030534351145038
58:16:988666,0.8247848510742188,-0.5676196289062501,0.8065228271484376,0.5572519083969465,0.7404580152671756,-2.32824427480916
58:17:074097,0.15417938232421877,-0.2424957275390625,1.282532958984375,1.0229007633587786,1.083969465648855,-2.3206106870229006
58:17:210284,-0.20627105712890625,-0.31255004882812504,1.6172369384765626,0.5725190839694656,0.7099236641221374,-2.396946564885496
58:17:210487,-1.7696200561523439,1.4807208251953126,1.6660354614257813,0.6717557251908397,0.366412213740458,-2.49618320610687
58:17:299080,-1.9953506469726563,3.9017861938476566,1.833387451171875,-0.916030534351145,-0.32061068702290074,-2.068702290076336
58:17:299272,0.6029461669921875,3.840114440917969,0.6858737182617188,0.3282442748091603,-0.9847328244274809,0.1984732824427481
58:17:305057,2.525548095703125,1.2630734252929687,1.2819342041015627,0.5954198473282443,1.0076335877862594,0.4580152671755725
58:17:388461,1.8869760131835938,1.057401123046875,2.130369873046875,-0.07633587786259542,0.4961832061068702,-0.022900763358778626
58:17:489453,1.3343252563476564,1.6504678344726564,2.1986279296875,-1.1908396946564885,-0.061068702290076333,0.26717557251908397
58:17:525967,0.6682104492187501,1.9073336791992188,1.6010705566406251,-1.8473282442748091,-0.23664122137404578,0.5267175572519084
58:17:526133,-0.271834716796875,1.81302978515625,1.6729211425781252,-1.7786259541984732,-0.5190839694656488,0.8778625954198473
58:17:658778,-0.7170089721679688,1.5175442504882812,1.7187258911132814,-1.6870229007633588,-1.0229007633587786,0.8625954198473282
58:17:659066,-0.662222900390625,1.5956817626953126,1.7250128173828125,-1.8549618320610686,-1.4045801526717556,0.5114503816793893
58:17:711491,-0.3553610229492188,1.264270935058594,1.8863772583007814,-1.8015267175572518,-1.6717557251908397,0.13740458015267176
58:17:749019,0.07514373779296875,1.0307565307617188,2.1716839599609377,-1.6870229007633588,-1.3740458015267174,-0.22900763358778625
58:17:793519,0.40206390380859375,0.9741741943359375,2.7833120727539065,-1.7862595419847327,-0.7786259541984732,-0.5954198473282443
58:17:799832,0.46702880859375,0.025746459960937502,3.676055603027344,-1.8854961832061068,-0.29770992366412213,-1.015267175572519
58:17:838324,-0.4742138671875,-2.2570065307617186,3.9053787231445316,-0.564885496183206,-0.9083969465648855,-2.0076335877862594
58:17:883296,-2.848276977539063,-2.595901794433594,2.6102719116210937,1.2213740458015268,0.5725190839694656,-4.137404580152672
58:17:931027,-5.65464111328125,1.4801220703125,1.6564553833007813,1.7557251908396947,-0.7786259541984732,-2.381679389312977
58:17:973475,-1.1430230712890626,2.551593933105469,0.8092172241210938,2.1755725190839694,-1.045801526717557,-0.2213740458015267
58:18:109104,0.4493655395507813,1.9980450439453126,0.5122348022460937,0.9923664122137404,-0.20610687022900762,0.8473282442748091
58:18:126217,0.243094482421875,0.7691006469726563,1.9812799072265626,-0.10687022900763359,-0.10687022900763359,1.3969465648854962
58:18:198531,1.035845947265625,-0.4206253051757813,2.9952713012695313,0.6259541984732824,0.2900763358778626,0.9847328244274809
58:18:243341,1.249002685546875,-0.45565246582031255,3.2730935668945316,0.5877862595419847,0.3511450381679389,0.29770992366412213
58:18:297100,1.2145742797851564,-0.243094482421875,3.0928683471679688,0.5343511450381679,0.7251908396946565,0.34351145038167935
58:18:297531,1.1337423706054688,-0.31344818115234374,2.662962341308594,0.15267175572519084,0.5877862595419847,0.3282442748091603
58:18:423406,1.561552734375,-0.6002517700195312,2.3141876220703126,0.1450381679389313,1.1603053435114503,-0.07633587786259542
58:18:428788,1.5079641723632813,-0.8493338012695313,2.1402493286132813,0.8854961832061068,0.8549618320610687,-0.40458015267175573
58:18:428969,1.5379019165039063,-1.08494384765625,2.002535705566406,1.4885496183206106,0.9389312977099237,-0.916030534351145
58:18:513231,1.0873388671875,-0.3131488037109375,2.079475708007813,1.2213740458015268,0.9770992366412213,-1.2213740458015268
58:18:558139,0.4041595458984375,-0.49756530761718754,1.7163308715820313,0.8167938931297709,0.4580152671755725,-1.4809160305343512
58:18:693364,-0.19848724365234377,-0.06915618896484375,2.1833596801757813,0.9389312977099237,1.366412213740458,-2.465648854961832
58:18:712866,-1.349593505859375,0.6307882690429688,2.4803421020507814,0.3969465648854962,1.3511450381679388,-2.549618320610687
58:18:713050,-1.7375866699218752,2.8740234375,3.5437307739257813,-0.007633587786259542,2.282442748091603,-3.030534351145038
58:18:741149,-1.0268646240234376,4.3828857421875,3.4221835327148438,-0.23664122137404578,0.2213740458015267,-1.2748091603053435
58:18:783182,0.9741741943359375,3.144061889648438,3.0793963623046876,-0.5572519083969465,0.42748091603053434,-0.061068702290076333
58:18:873838,1.8720071411132813,1.2247531127929687,3.2431558227539066,-0.3511450381679389,0.4961832061068702,0.015267175572519083
58:18:963702,1.71722900390625,1.5492782592773438,3.393443298339844,0.13740458015267176,-0.3053435114503817,0.09923664122137404
58:18:963837,1.3070819091796875,2.032174072265625,2.5701553344726564,0.17557251908396945,-0.7862595419847328,0.7557251908396946
58:19:010585,0.36254608154296875,2.1201910400390624,1.512155456542969,0.19083969465648853,-0.8625954198473282,1.3511450381679388
58:19:053530,-0.5367837524414063,1.3091775512695314,0.7966433715820312,0.5954198473282443,-0.6259541984732824,1.9694656488549618
58:19:098384,-0.699345703125,1.0816506958007812,0.2496807861328125,0.3893129770992366,-0.007633587786259542,1.916030534351145
58:19:233661,-1.1169772338867188,1.5684384155273439,-0.456251220703125,-1.0,0.20610687022900762,2.0381679389312977
58:19:323289,-1.5459851074218751,1.7642312622070313,-0.5966592407226563,-0.9465648854961831,0.6335877862595419,2.068702290076336
58:19:323434,-1.7354910278320312,1.8516494750976564,-0.9262738037109376,-1.198473282442748,0.8931297709923663,2.5877862595419847
58:19:323536,-2.2040167236328125,1.7142352294921877,-0.29368927001953127,-1.0687022900763359,1.1450381679389312,2.3587786259541983
58:19:503381,-2.4743545532226565,0.39577697753906255,0.08592132568359376,-2.1297709923664123,0.5343511450381679,3.0534351145038165
58:19:503582,-1.146016845703125,-2.278861083984375,0.47062133789062505,-2.33587786259542,-1.3129770992366412,0.8931297709923663
58:19:521414,1.6600479125976564,-1.2160711669921875,1.1714639282226562,-0.04580152671755725,-0.22900763358778625,0.282442748091603
58:19:521575,1.9917581176757813,-0.06256988525390625,1.7809963989257813,-0.22900763358778625,0.20610687022900762,0.022900763358778626
58:19:548349,2.128872985839844,-0.298179931640625,1.8154248046875001,-0.11450381679389313,-0.2748091603053435,-0.4198473282442748
58:19:593187,2.6764343261718753,-0.11076965332031251,1.4711407470703126,0.282442748091603,0.08396946564885496,-0.7709923664122137
58:19:638561,2.7907965087890627,0.12094848632812501,1.5576608276367188,0.40458015267175573,0.33587786259541985,-0.9236641221374046
58:19:728453,2.644999694824219,0.25147705078125,1.7244140625000002,0.5190839694656488,0.33587786259541985,-0.7862595419847328
58:19:773252,2.169588317871094,0.06616241455078126,2.0082238769531253,0.35877862595419846,-0.06870229007633588,-0.5038167938931297
58:19:773474,2.160008239746094,-0.580792236328125,1.7480648803710939,0.5267175572519084,-0.1984732824427481,-0.9007633587786259
58:19:863977,1.5992742919921876,-0.7756869506835938,1.474134521484375,0.8015267175572519,0.015267175572519083,-1.3358778625954197
58:19:908430,0.9795629882812501,-1.178349609375,1.5283218383789063,0.8625954198473282,-0.08396946564885496,-1.8625954198473282
58:20:133403,0.47301635742187503,-0.4577481079101563,0.9577084350585938,0.8549618320610687,0.17557251908396945,-2.396946564885496
58:20:144633,0.1676513671875,0.14220428466796875,1.48730712890625,0.648854961832061,0.5038167938931297,-2.1755725190839694
58:20:181966,0.047601013183593756,0.2221380615234375,1.3373190307617189,0.46564885496183206,0.8702290076335878,-2.6946564885496183
58:20:224116,-1.2247531127929687,0.5679190063476562,1.5840060424804687,0.6717557251908397,1.1221374045801527,-2.7938931297709924
58:20:224263,-2.209405517578125,2.7656488037109375,1.1169772338867188,0.35877862595419846,0.4351145038167939,-2.3053435114503817
58:20:224381,0.3059637451171875,4.443060607910157,1.0253677368164062,-0.40458015267175573,0.17557251908396945,-0.732824427480916
58:20:313555,1.5328125000000001,2.171983337402344,2.408790893554688,-0.08396946564885496,0.3129770992366412,0.6641221374045801
58:20:358337,2.11001220703125,0.6230044555664063,2.67523681640625,0.35877862595419846,0.13740458015267176,0.22900763358778625
58:20:403216,2.108814697265625,0.9035211181640626,2.2016217041015627,-0.37404580152671757,-0.08396946564885496,0.1450381679389313
58:20:408629,1.5929873657226563,1.4804214477539064,1.5983761596679689,-1.1908396946564885,0.030534351145038167,-0.015267175572519083
58:20:448169,0.511336669921875,2.192640380859375,1.2630734252929687,-2.32824427480916,-0.2900763358778626,0.26717557251908397
58:20:544977,-0.0014968872070312501,2.053429870605469,1.1822415161132813,-2.5801526717557253,-0.6030534351145038,0.32061068702290074
58:20:673633,-0.5478607177734375,2.492915954589844,1.7929714965820314,-2.519083969465649,-1.0534351145038168,0.38167938931297707
58:20:673800,-0.7259902954101562,1.9127224731445314,2.355501708984375,-1.9618320610687021,-1.6030534351145038,0.35877862595419846
58:20:718459,-0.63947021484375,0.9894424438476563,2.3974145507812503,-1.7175572519083968,-1.748091603053435,0.061068702290076333
58:20:718687,-0.03742218017578125,0.6173162841796875,2.442021789550781,-1.9389312977099236,-1.1526717557251909,-1.1450381679389312
58:20:808967,-0.5068460083007813,-0.19399658203125,3.0662237548828126,-1.099236641221374,-0.9389312977099237,-1.8396946564885495
58:20:898539,-1.3888119506835939,-0.4424798583984375,3.0165270996093754,-0.2900763358778626,-0.47328244274809156,-2.4351145038167936
58:20:898679,-2.975512390136719,-0.7032376098632813,2.918331298828125,0.23664122137404578,-1.0687022900763359,-2.610687022900763
58:20:943488,-4.774770812988281,0.7547305297851563,1.8444644165039064,0.7175572519083969,-0.5954198473282443,-3.183206106870229
58:21:034207,-2.336341552734375,3.0392797851562503,1.3921051025390625,0.6030534351145038,-0.7862595419847328,-1.1450381679389312
58:21:168510,0.40625518798828125,3.134781188964844,0.9598040771484375,0.732824427480916,-0.732824427480916,0.25190839694656486
58:21:174397,1.0702743530273438,1.363963623046875,1.5534695434570314,-0.15267175572519084,0.10687022900763359,1.1450381679389312
58:21:258349,1.4337185668945314,-0.22243743896484375,2.4860302734375,-0.08396946564885496,0.32061068702290074,0.8091603053435115
58:21:348972,1.3133688354492188,-0.6251000976562501,2.910846862792969,0.5267175572519084,0.4580152671755725,0.5190839694656488
58:21:349133,1.0807525634765625,-0.4834945678710938,2.964435424804688,0.6717557251908397,0.37404580152671757,0.48854961832061067
58:21:393341,1.0011181640625,-0.42541534423828126,2.762355651855469,0.5801526717557252,0.26717557251908397,0.5190839694656488
58:21:398720,1.4160552978515626,-0.429906005859375,2.4456143188476562,0.648854961832061,0.6259541984732824,0.3893129770992366
58:21:398836,1.2600796508789063,-0.6029461669921875,2.8243267822265627,0.7404580152671756,0.2213740458015267,0.3282442748091603
58:21:438293,1.8693127441406252,-1.1948153686523437,2.521656188964844,1.4580152671755724,0.366412213740458,-0.29770992366412213
58:21:483198,1.5151492309570314,-1.5510745239257813,1.9657122802734377,2.16030534351145,0.5267175572519084,-0.8396946564885496
58:21:488545,0.8915460205078125,-1.18553466796875,1.4148577880859377,1.7022900763358777,0.24427480916030533,-1.83206106870229
58:21:528567,0.4427792358398438,-0.8379574584960938,1.5313156127929688,0.9618320610687022,0.7633587786259541,-2.33587786259542
58:21:618411,0.0796343994140625,-0.30147308349609375,1.641785888671875,0.7938931297709924,2.0381679389312977,-2.8931297709923665
58:21:663286,-1.7995578002929689,0.19728973388671875,2.8255242919921875,0.5954198473282443,1.5877862595419847,-2.9618320610687023
58:21:753542,-2.30640380859375,3.133583679199219,2.0944445800781253,-0.6793893129770993,0.6564885496183206,-2.8091603053435112
58:21:843830,-0.36643798828125,4.606820068359375,2.6252407836914062,-0.2748091603053435,0.4427480916030534,-1.0076335877862594
58:21:844023,0.96998291015625,2.2144949340820315,3.366798706054688,0.16793893129770993,0.6030534351145038,0.7862595419847328
58:21:978589,2.0381616210937503,0.7313790893554688,3.3353640747070314,-0.24427480916030533,0.13740458015267176,0.05343511450381679
58:21:978728,2.0375628662109375,1.0837463378906251,2.9593460083007814,-0.7251908396946565,-0.21374045801526717,-0.20610687022900762
58:22:023366,1.618733825683594,1.235830078125,2.3896307373046874,-0.4198473282442748,-0.24427480916030533,0.11450381679389313
58:22:023500,0.9990225219726563,1.5941848754882812,1.9591259765625002,-0.0916030534351145,-0.7175572519083969,0.8854961832061068
58:22:159074,0.3688330078125,1.392703857421875,1.1415261840820312,-0.183206106870229,-0.5038167938931297,1.3893129770992365
58:22:159227,-0.360450439453125,0.9397457885742188,0.9633966064453126,0.15267175572519084,-0.6183206106870229,1.8549618320610686
58:22:211748,0.22094055175781252,0.7223977661132813,0.85502197265625,0.015267175572519083,-0.40458015267175573,2.1068702290076335
58:22:211943,-1.0756631469726563,1.9258950805664063,0.48379394531250003,-0.32061068702290074,-0.6106870229007634,2.465648854961832
58:22:248371,-3.1332843017578127,2.9464727783203126,-1.3316308593750001,-1.3358778625954197,0.34351145038167935,3.015267175572519
58:22:293336,-4.342170410156251,2.096540222167969,-0.7295828247070313,-1.0687022900763359,0.4580152671755725,3.4198473282442747
58:22:339198,-3.430566101074219,0.7035369873046875,0.42541534423828126,-1.3969465648854962,0.32061068702290074,2.8244274809160306
58:22:383588,-1.670226745605469,-1.858235778808594,0.7969427490234375,-1.0,-0.4809160305343511,1.5190839694656488
58:22:518678,1.36755615234375,-2.8084597778320313,0.93645263671875,0.3129770992366412,0.09923664122137404,0.5114503816793893
58:22:563252,1.850152587890625,-0.6649172973632813,1.4426998901367187,0.3282442748091603,0.16030534351145037,-0.13740458015267176
58:22:608181,2.5051904296875,0.6553372192382813,1.9734960937500001,-0.13740458015267176,0.09923664122137404,0.21374045801526717
58:22:788565,2.664159851074219,0.12064910888671876,2.185155944824219,-0.5190839694656488,0.030534351145038167,-0.0916030534351145
58:22:788730,2.575843505859375,-0.4451742553710938,2.135159912109375,-0.20610687022900762,0.007633587786259542,-0.35877862595419846
58:22:804282,2.446512451171875,-0.8235873413085938,1.853445739746094,0.16030534351145037,0.1984732824427481,-0.7404580152671756
58:22:804460,1.9887643432617188,-0.5457650756835938,1.8211129760742188,0.11450381679389313,0.2900763358778626,-1.0305343511450382
58:22:833556,1.898052978515625,-0.41583526611328125,1.9489471435546877,0.16030534351145037,0.25190839694656486,-1.2213740458015268
58:22:878426,0.9813592529296875,-0.19309844970703127,1.8773959350585938,0.3969465648854962,0.05343511450381679,-1.4427480916030533
58:22:884228,0.46613067626953125,-0.536484375,1.5214361572265627,0.5801526717557252,-0.030534351145038167,-1.7633587786259541
58:23:014141,-0.0014968872070312501,-0.2820135498046875,1.004710693359375,0.5267175572519084,0.24427480916030533,-2.3053435114503817
58:23:058393,-0.07514373779296875,0.0173638916015625,0.3454815673828125,0.47328244274809156,0.6106870229007634,-2.763358778625954
58:23:058589,-0.324525146484375,0.9517208862304688,0.28530670166015626,0.7938931297709924,1.6717557251908397,-2.786259541984733
58:23:103356,-1.0388397216796876,0.4086502075195313,1.174757080078125,1.7099236641221374,1.5419847328244274,-2.450381679389313
58:23:148232,-2.166295166015625,3.090772705078125,1.5166461181640625,0.5267175572519084,0.6564885496183206,-2.351145038167939
58:23:283891,-0.5984555053710938,4.572691040039063,1.4828164672851563,-0.8778625954198473,-0.1297709923664122,-1.648854961832061
58:23:302396,1.4747332763671877,3.83203125,2.1369561767578125,-0.2748091603053435,0.3129770992366412,0.23664122137404578
58:23:328405,1.7666262817382814,1.8806890869140627,2.8635452270507815,-0.3282442748091603,0.5038167938931297,0.3129770992366412
58:23:373760,1.5669415283203125,1.17116455078125,2.8195367431640626,-1.0610687022900762,-0.08396946564885496,0.12213740458015267
58:23:421548,1.0148895263671875,1.4600637817382813,2.125879211425781,-1.6259541984732824,-0.40458015267175573,0.13740458015267176
58:23:508350,-0.7343728637695313,1.9031423950195314,1.97110107421875,-0.4580152671755725,-0.9847328244274809,0.8625954198473282
58:23:508513,-1.0208770751953125,2.174677734375,1.2328363037109376,-0.5114503816793893,-0.9236641221374046,1.8244274809160304
58:23:599186,-0.6855743408203125,1.2867242431640626,0.4547543334960938,-2.381679389312977,-1.2595419847328244,1.282442748091603
58:23:643578,0.5358856201171875,0.7939489746093751,0.547261962890625,-3.564885496183206,-0.916030534351145,-0.03816793893129771
58:23:691352,0.7191046142578126,0.7469467163085938,2.1573138427734375,-3.7862595419847325,-1.0229007633587786,-0.9389312977099237
58:23:733378,0.10627899169921876,-0.5421725463867187,3.6071987915039063,-1.618320610687023,-0.9541984732824427,-1.618320610687023
58:23:785213,-2.404599609375,-1.9139199829101563,3.7161721801757817,0.4961832061068702,-1.9312977099236641,-2.068702290076336
58:23:785434,-3.2563284301757816,-1.4112652587890626,2.45968505859375,0.0916030534351145,-0.3129770992366412,-3.66412213740458
58:23:958283,-5.982160034179688,0.6942562866210937,1.9252963256835938,0.4198473282442748,-0.37404580152671757,-3.297709923664122
58:24:003754,-3.0252090454101563,2.694995727539063,1.0963201904296875,0.2900763358778626,0.21374045801526717,-1.6412213740458015
58:24:003934,-0.013172607421875001,2.978206787109375,1.134041748046875,1.045801526717557,-0.41221374045801523,0.08396946564885496
58:24:093970,0.746048583984375,1.8633251953125,1.2576846313476564,-0.22900763358778625,-0.5725190839694656,1.2671755725190839
58:24:094129,1.3355227661132814,0.159268798828125,1.8693127441406252,-0.0916030534351145,-0.16030534351145037,1.0610687022900762
58:24:099460,1.2774435424804689,-0.319735107421875,2.266586608886719,0.7480916030534351,0.5877862595419847,0.4961832061068702
58:24:184306,0.5631289672851563,0.03981719970703125,2.6680517578125,1.4961832061068703,0.6717557251908397,0.6870229007633587
58:24:228626,0.25776397705078125,0.2844085693359375,2.5725503540039063,1.450381679389313,0.8167938931297709,0.8473282442748091
58:24:273677,0.5670208740234375,0.02664459228515625,2.278561706542969,1.66412213740458,0.7175572519083969,0.5801526717557252
58:24:411952,1.620230712890625,0.2613565063476563,2.166295166015625,1.0610687022900762,1.1603053435114503,0.33587786259541985
58:24:412229,1.5528707885742188,-0.17603393554687502,2.6872119140625,0.1297709923664122,0.6412213740458015,-0.05343511450381679
58:24:453688,2.165995788574219,-1.0265652465820314,2.378553771972656,-0.3053435114503817,0.83206106870229,-0.9389312977099237
58:24:498537,1.6690292358398438,-0.9981243896484375,2.0357666015625,0.24427480916030533,1.7404580152671756,-1.4732824427480915
58:24:543425,0.229921875,-0.6658154296875001,1.7411791992187502,1.7633587786259541,1.984732824427481,-1.4961832061068703
58:24:588856,-1.2181668090820312,0.7283853149414062,2.731220397949219,1.4351145038167938,2.0076335877862594,-2.1908396946564883
58:24:634166,-1.2918136596679688,1.4702426147460939,2.715652770996094,0.9389312977099237,0.7404580152671756,-1.4427480916030533
58:24:768415,-0.671802978515625,3.1494506835937504,2.5848248291015627,-0.1297709923664122,1.114503816793893,-2.091603053435114
58:24:768602,0.14130615234375002,3.559897155761719,3.669768676757813,0.3282442748091603,0.4427480916030534,-0.7480916030534351
58:24:813688,1.2998968505859376,2.193538513183594,3.6131863403320312,0.8244274809160305,0.09923664122137404,0.5725190839694656
58:24:860673,2.2827529907226562,0.47990203857421876,2.78061767578125,-0.564885496183206,0.05343511450381679,-0.007633587786259542
58:24:903613,2.2773641967773437,0.41583526611328125,2.3276596069335938,-0.25190839694656486,0.2748091603053435,-0.5038167938931297
58:25:038317,1.4765295410156252,1.49688720703125,2.226170654296875,-0.3053435114503817,0.030534351145038167,-0.0916030534351145
58:25:038511,0.5134323120117188,1.9968475341796876,1.8935623168945312,-0.5267175572519084,-0.7251908396946565,0.7709923664122137
58:25:086056,-0.276624755859375,1.3118719482421877,1.1924203491210938,0.1297709923664122,-0.9694656488549618,1.618320610687023
58:25:086200,-0.73048095703125,0.609532470703125,0.9002279663085938,0.5877862595419847,-0.9236641221374046,2.1526717557251906
58:25:086301,-0.7894583129882813,1.3238470458984375,0.5834866333007813,0.5954198473282443,-0.40458015267175573,2.0534351145038165
58:25:128226,-2.891087951660156,2.2171893310546875,-0.7939489746093751,-0.47328244274809156,-0.29770992366412213,2.969465648854962
58:25:173972,-3.3979339599609375,1.3915063476562501,-1.2720547485351563,-1.198473282442748,0.7786259541984732,2.9541984732824424
58:25:308623,-2.964734802246094,0.6194119262695312,-0.32213012695312504,-0.8931297709923663,1.16793893129771,3.0076335877862594
58:25:353559,-2.0812719726562503,0.7346722412109375,0.42691223144531254,-2.1755725190839694,0.9236641221374046,2.66412213740458
58:25:398406,-0.3691323852539063,-0.8756790161132812,0.6523434448242188,-3.213740458015267,0.03816793893129771,1.0
58:25:533647,1.3561798095703126,-1.8486557006835938,1.5690371704101562,0.23664122137404578,-0.3053435114503817,0.47328244274809156
58:25:533839,2.3381378173828127,-1.0903326416015626,1.114582214355469,0.0916030534351145,-0.25190839694656486,0.06870229007633588
58:25:623376,2.609074401855469,-0.4343966674804688,1.6938775634765626,0.4198473282442748,0.17557251908396945,-0.5114503816793893
58:25:623524,2.3309527587890626,0.06586303710937501,2.018702087402344,0.83206106870229,-0.015267175572519083,-0.5343511450381679
58:25:623630,2.238145751953125,0.2751278686523438,1.7974621582031252,0.4961832061068702,0.03816793893129771,-0.8091603053435115
58:25:668239,2.1968316650390625,-0.03382965087890625,1.7594412231445313,0.47328244274809156,0.15267175572519084,-1.0305343511450382
58:25:803953,1.8148260498046875,-0.427510986328125,1.5678396606445313,0.8778625954198473,0.16793893129770993,-1.2290076335877862
58:25:848378,1.7247134399414064,-0.5607339477539063,1.2678634643554687,0.6946564885496183,0.1450381679389313,-1.4732824427480915
58:25:848535,1.2220587158203127,0.07753875732421875,0.9996212768554688,0.3282442748091603,0.2595419847328244,-1.9389312977099236
58:25:893306,0.6700067138671876,0.1299298095703125,1.2286450195312502,0.5572519083969465,0.22900763358778625,-1.7709923664122136
58:25:938339,0.5298980712890625,0.07753875732421875,0.5754034423828125,0.8244274809160305,0.4580152671755725,-2.183206106870229
58:25:983752,0.4493655395507813,0.4167333984375,0.5858816528320313,1.1526717557251909,0.4809160305343511,-2.0763358778625953
58:26:074345,0.14040802001953126,1.038240966796875,0.7295828247070313,1.1068702290076335,1.2061068702290076,-2.236641221374046
58:26:074533,-1.0756631469726563,1.4711407470703126,1.9806811523437502,1.0,0.6793893129770993,-1.9236641221374045
58:26:176805,-0.9744735717773438,3.5476226806640625,1.5648458862304688,-0.9770992366412213,0.8167938931297709,-2.450381679389313
58:26:176975,0.26315277099609374,3.958667907714844,2.86683837890625,-0.7480916030534351,0.5572519083969465,-1.282442748091603
58:26:208514,1.2337344360351563,1.9800823974609376,3.7916152954101565,0.3282442748091603,0.0,0.7404580152671756
58:26:298282,1.8181192016601564,1.3046868896484376,2.71834716796875,-0.5190839694656488,-0.4961832061068702,0.35877862595419846
58:26:303694,1.1026071166992188,2.0375628662109375,1.6564553833007813,-1.8702290076335877,-0.6030534351145038,0.282442748091603
58:26:389069,0.1442999267578125,2.431842956542969,1.1690689086914063,-2.2442748091603053,-0.7709923664122137,0.4427480916030534
58:26:486626,-0.9627978515625001,2.5761428833007813,1.5684384155273439,-2.0839694656488548,-1.1908396946564885,0.732824427480916
58:26:486794,-1.1825408935546875,2.0758831787109377,1.7199234008789064,-1.7938931297709924,-1.7709923664122136,0.8015267175572519
58:26:523319,-1.5642471313476562,1.5543676757812501,1.9246975708007814,-1.9083969465648853,-2.045801526717557,0.549618320610687
58:26:568650,-0.8660989379882813,0.9370513916015626,1.8223104858398438,-2.145038167938931,-1.5954198473282442,-0.15267175572519084
58:26:568844,-0.06316864013671876,0.0544866943359375,2.8961773681640626,-2.236641221374046,-0.648854961832061,-1.3740458015267174
