timestamp,accel.x,accel.y,accel.z,gyro.x,gyro.y,gyro.z
45:58:396343,0.024548950195312502,0.01047821044921875,0.05957611083984375,-0.015267175572519083,0.0,-0.007633587786259542
45:58:457319,0.02424957275390625,0.00718505859375,0.061671752929687504,-0.015267175572519083,0.0,-0.007633587786259542
45:58:457517,0.02424957275390625,0.00718505859375,0.061671752929687504,-0.015267175572519083,0.0,-0.007633587786259542
45:58:489126,0.022752685546875002,0.003592529296875,0.06077362060546875,-0.007633587786259542,0.0,-0.007633587786259542
45:58:553355,0.02185455322265625,-0.0005987548828125,0.0592767333984375,0.0,0.0,-0.007633587786259542
45:58:553535,0.02185455322265625,-0.0005987548828125,0.0592767333984375,0.0,0.0,-0.007633587786259542
45:58:553645,0.02185455322265625,-0.0041912841796875,0.056582336425781254,0.0,0.0,-0.007633587786259542
45:58:574256,0.02125579833984375,-0.006885681152343751,0.053887939453125006,0.007633587786259542,0.0,0.0
45:58:574439,0.02125579833984375,-0.006885681152343751,0.053887939453125006,0.007633587786259542,0.0,0.0
45:58:676789,0.023351440429687502,-0.0059875488281250005,0.052989807128906254,0.015267175572519083,0.0,0.0
45:58:676954,0.026345214843750003,-0.003592529296875,0.0556842041015625,0.015267175572519083,0.0,0.0
45:58:711008,0.026345214843750003,-0.003592529296875,0.0556842041015625,0.015267175572519083,0.0,0.0
45:58:849087,0.026943969726562503,0.0,0.05957611083984375,0.015267175572519083,0.0,0.0
45:59:031568,0.025746459960937502,0.0047900390625,0.06496490478515625,0.007633587786259542,0.0,0.0
45:59:077021,0.025746459960937502,0.0047900390625,0.06496490478515625,0.007633587786259542,0.0,0.0
45:59:124887,0.023351440429687502,0.009580078125,0.06825805664062501,0.0,0.0,0.0
45:59:170321,0.023351440429687502,0.009580078125,0.06825805664062501,0.0,0.0,0.0
45:59:170488,0.02065704345703125,0.011675720214843751,0.07155120849609375,0.0,0.0,0.0
45:59:170607,0.01945953369140625,0.012274475097656251,0.0712518310546875,-0.007633587786259542,-0.007633587786259542,0.0
45:59:213168,0.01945953369140625,0.012274475097656251,0.0712518310546875,-0.007633587786259542,-0.007633587786259542,0.0
45:59:251672,0.0185614013671875,0.012274475097656251,0.07065307617187501,0.0,-0.007633587786259542,0.0
45:59:302419,0.0185614013671875,0.00987945556640625,0.06616241455078126,0.0,-0.007633587786259542,0.0
45:59:345500,0.0185614013671875,0.00987945556640625,0.06616241455078126,0.0,-0.007633587786259542,0.0
45:59:388886,0.02125579833984375,0.006286926269531251,0.0628692626953125,0.007633587786259542,-0.007633587786259542,0.0
45:59:389048,0.025746459960937502,0.0032931518554687503,0.057779846191406255,0.007633587786259542,0.0,0.0
45:59:389168,0.025746459960937502,0.0032931518554687503,0.057779846191406255,0.007633587786259542,0.0,0.0
45:59:441048,0.02844085693359375,0.0014968872070312501,0.05358856201171875,0.007633587786259542,0.0,0.0
45:59:520892,0.03113525390625,0.0,0.05239105224609375,0.007633587786259542,0.0,0.0
45:59:521109,0.02903961181640625,-0.001197509765625,0.056282958984375006,0.0,0.0,-0.007633587786259542
45:59:573021,0.02903961181640625,-0.001197509765625,0.056282958984375006,0.0,0.0,-0.007633587786259542
45:59:706512,0.01945953369140625,0.00808319091796875,0.0664617919921875,-0.007633587786259542,-0.007633587786259542,-0.007633587786259542
45:59:706627,0.018262023925781252,0.0077838134765625,0.06466552734375,-0.015267175572519083,-0.007633587786259542,-0.007633587786259542
45:59:706707,0.02724334716796875,0.00389190673828125,0.0556842041015625,-0.007633587786259542,0.0,-0.007633587786259542
46:00:021368,0.02724334716796875,0.00389190673828125,0.0556842041015625,-0.007633587786259542,0.0,-0.007633587786259542
46:00:069143,0.028740234375,0.0032931518554687503,0.06466552734375,-0.015267175572519083,0.0,-0.007633587786259542
46:00:069266,0.024548950195312502,0.0032931518554687503,0.06735992431640625,-0.015267175572519083,0.0,-0.007633587786259542
46:00:069349,0.013471984863281251,0.0059875488281250005,0.058677978515625,0.0,-0.007633587786259542,-0.007633587786259542
46:00:109095,0.015567626953125,0.003592529296875,0.0568817138671875,0.0,-0.007633587786259542,-0.007633587786259542
46:00:200969,True,False,,,,
46:00:252176,True,False,,,,
46:00:301688,0.0461041259765625,0.00928070068359375,0.049097900390625004,-0.03816793893129771,0.015267175572519083,0.0
46:00:301892,-0.8319699096679688,1.2400213623046876,1.131347351074219,-0.13740458015267176,-0.4580152671755725,0.13740458015267176
46:00:387819,-0.8319699096679688,1.2400213623046876,1.131347351074219,-0.13740458015267176,-0.4580152671755725,0.13740458015267176
46:00:388004,-0.760418701171875,1.2409194946289064,1.174757080078125,-0.16030534351145037,-0.5190839694656488,0.13740458015267176
46:00:388218,-0.760418701171875,1.2409194946289064,1.174757080078125,-0.16030534351145037,-0.5190839694656488,0.13740458015267176
46:00:433184,-0.760418701171875,1.2409194946289064,1.174757080078125,-0.16030534351145037,-0.5190839694656488,0.13740458015267176
46:00:433342,-0.6475534057617188,1.2690609741210939,1.1678713989257814,-0.19083969465648853,-0.564885496183206,0.1450381679389313
46:00:467421,True,False,,,,
46:00:569010,0.09280700683593751,1.409169616699219,0.9496252441406251,-0.366412213740458,-0.48854961832061067,0.08396946564885496
46:00:569180,0.29458740234375,1.4579681396484376,0.8921447753906251,-0.40458015267175573,-0.42748091603053434,0.03816793893129771
46:00:604409,0.29458740234375,1.4579681396484376,0.8921447753906251,-0.40458015267175573,-0.42748091603053434,0.03816793893129771
46:00:604530,0.46882507324218753,1.5552658081054689,0.7993377685546875,-0.4427480916030534,-0.3511450381679389,0.022900763358778626
46:00:604613,True,False,,,,
46:00:692403,0.6328839111328125,1.7049545288085939,0.6469546508789062,-0.4961832061068702,-0.2748091603053435,0.030534351145038167
46:00:692614,0.6328839111328125,1.7049545288085939,0.6469546508789062,-0.4961832061068702,-0.2748091603053435,0.030534351145038167
46:00:692710,0.7882608032226562,1.9043399047851564,0.4550537109375,-0.5801526717557252,-0.1984732824427481,0.05343511450381679
46:00:692790,1.3253439331054688,4.665498046875,-1.6621435546875,-0.8015267175572519,1.2061068702290076,1.16793893129771
46:00:785001,1.3253439331054688,4.665498046875,-1.6621435546875,-0.8015267175572519,1.2061068702290076,1.16793893129771
46:00:785140,1.3253439331054688,4.665498046875,-1.6621435546875,-0.8015267175572519,1.2061068702290076,1.16793893129771
46:00:841102,1.1361373901367189,4.620591430664063,-1.5232324218750002,-0.8778625954198473,1.1832061068702289,1.2061068702290076
46:00:879706,1.1361373901367189,4.620591430664063,-1.5232324218750002,-0.8778625954198473,1.1832061068702289,1.2061068702290076
46:00:879897,0.9526190185546876,4.554728393554687,-1.3885125732421875,-0.9312977099236641,1.16793893129771,1.2366412213740459
46:00:915930,0.31913635253906253,2.205513610839844,-0.33979339599609376,-0.648854961832061,0.9618320610687022,0.564885496183206
46:00:916159,0.31913635253906253,2.205513610839844,-0.33979339599609376,-0.648854961832061,0.9618320610687022,0.564885496183206
46:00:977326,0.16106506347656252,2.1405487060546875,-0.132923583984375,-0.7786259541984732,0.8625954198473282,0.4809160305343511
46:00:977528,0.16106506347656252,2.1405487060546875,-0.132923583984375,-0.7786259541984732,0.8625954198473282,0.4809160305343511
46:00:977696,0.16106506347656252,2.1405487060546875,-0.132923583984375,-0.7786259541984732,0.8625954198473282,0.4809160305343511
46:01:008988,-0.012274475097656251,2.013912048339844,0.086220703125,-0.8396946564885496,0.7557251908396946,0.38167938931297707
46:01:056830,-0.012274475097656251,2.013912048339844,0.086220703125,-0.8396946564885496,0.7557251908396946,0.38167938931297707
46:01:056988,-0.3023712158203125,0.4218228149414063,1.5911911010742188,0.06870229007633588,0.24427480916030533,0.061068702290076333
46:01:057083,-0.3023712158203125,0.4218228149414063,1.5911911010742188,0.06870229007633588,0.24427480916030533,0.061068702290076333
46:01:057195,-0.3023712158203125,0.4218228149414063,1.5911911010742188,0.06870229007633588,0.24427480916030533,0.061068702290076333
46:01:098346,0.8813671875000001,-0.06855743408203126,1.9468515014648438,0.6870229007633587,-0.5267175572519084,-0.7786259541984732
46:01:098505,0.8813671875000001,-0.06855743408203126,1.9468515014648438,0.6870229007633587,-0.5267175572519084,-0.7786259541984732
46:01:149012,0.7696994018554688,0.26884094238281253,1.8345849609375,0.6335877862595419,-0.6259541984732824,-0.8931297709923663
46:01:149127,0.7696994018554688,0.26884094238281253,1.8345849609375,0.6335877862595419,-0.6259541984732824,-0.8931297709923663
46:01:149216,0.6167175292968751,0.6655160522460938,1.7058526611328126,0.549618320610687,-0.7404580152671756,-0.9847328244274809
46:01:195395,0.6167175292968751,0.6655160522460938,1.7058526611328126,0.549618320610687,-0.7404580152671756,-0.9847328244274809
46:01:233461,1.22625,2.7045758056640627,-0.0197589111328125,-0.022900763358778626,-0.549618320610687,-0.7404580152671756
46:01:276381,1.22625,2.7045758056640627,-0.0197589111328125,-0.022900763358778626,-0.549618320610687,-0.7404580152671756
46:01:276496,1.450184326171875,2.651585998535156,-0.041912841796875,-0.030534351145038167,-0.4809160305343511,-0.6641221374045801
46:01:276561,1.450184326171875,2.651585998535156,-0.041912841796875,-0.030534351145038167,-0.4809160305343511,-0.6641221374045801
46:01:276638,1.450184326171875,2.651585998535156,-0.041912841796875,-0.030534351145038167,-0.4809160305343511,-0.6641221374045801
46:01:373086,2.824925537109375,2.6638604736328126,-0.41852966308593753,-0.21374045801526717,0.2595419847328244,0.022900763358778626
46:01:373249,2.824925537109375,2.6638604736328126,-0.41852966308593753,-0.21374045801526717,0.2595419847328244,0.022900763358778626
46:01:373373,2.8542645263671877,2.712359619140625,-0.38889129638671877,-0.2595419847328244,0.3129770992366412,0.1297709923664122
46:01:426215,2.8542645263671877,2.712359619140625,-0.38889129638671877,-0.2595419847328244,0.3129770992366412,0.1297709923664122
46:01:426399,2.8596533203125003,2.7336154174804688,-0.34637969970703125,-0.26717557251908397,0.35877862595419846,0.24427480916030533
46:01:426507,2.8596533203125003,2.7336154174804688,-0.34637969970703125,-0.26717557251908397,0.35877862595419846,0.24427480916030533
46:01:466210,2.8596533203125003,2.7336154174804688,-0.34637969970703125,-0.26717557251908397,0.35877862595419846,0.24427480916030533
46:01:466380,2.7656488037109375,2.7357110595703125,-0.2389031982421875,-0.0916030534351145,0.48854961832061067,0.6564885496183206
46:01:509352,2.3327490234375,2.9030630493164065,-0.255069580078125,-0.022900763358778626,0.6641221374045801,1.0763358778625953
46:01:509572,2.3327490234375,2.9030630493164065,-0.255069580078125,-0.022900763358778626,0.6641221374045801,1.0763358778625953
46:01:509689,2.1546194458007815,3.0135333251953127,-0.30566436767578126,-0.08396946564885496,0.6793893129770993,1.1374045801526718
46:01:509807,2.1546194458007815,3.0135333251953127,-0.30566436767578126,-0.08396946564885496,0.6793893129770993,1.1374045801526718
46:01:557065,0.3933819580078125,4.050876159667969,-0.7385641479492188,-0.29770992366412213,1.1450381679389312,1.465648854961832
46:01:593165,0.3933819580078125,4.050876159667969,-0.7385641479492188,-0.29770992366412213,1.1450381679389312,1.465648854961832
46:01:593325,0.07933502197265625,4.149670715332031,-0.6852749633789063,-0.3893129770992366,1.083969465648855,1.4885496183206106
46:01:638026,-0.8759783935546875,2.813848571777344,-0.39577697753906255,-0.549618320610687,1.114503816793893,1.2061068702290076
46:01:638171,-0.8759783935546875,2.813848571777344,-0.39577697753906255,-0.549618320610687,1.114503816793893,1.2061068702290076
46:01:638272,-0.9624984741210938,2.5869204711914064,-0.23141876220703125,-0.648854961832061,1.045801526717557,1.0610687022900762
46:01:693122,-0.9624984741210938,2.5869204711914064,-0.23141876220703125,-0.648854961832061,1.045801526717557,1.0610687022900762
46:01:693264,-0.9624984741210938,2.5869204711914064,-0.23141876220703125,-0.648854961832061,1.045801526717557,1.0610687022900762
46:01:771330,-1.054706726074219,2.41657470703125,-0.1011895751953125,-0.7709923664122137,0.9389312977099237,0.9465648854961831
46:01:776657,-0.40954833984375,-0.16076568603515626,1.2549902343750001,-0.16793893129770993,-0.08396946564885496,0.24427480916030533
46:01:776754,0.9202862548828126,-0.8346643066406251,1.1271560668945313,0.3282442748091603,-0.183206106870229,-0.26717557251908397
46:01:822547,1.052611083984375,-0.041613464355468754,1.2241543579101564,0.030534351145038167,-0.4351145038167939,-0.9389312977099237
46:01:867404,0.5604345703125,1.4316229248046877,1.3364208984375001,-0.23664122137404578,-0.4809160305343511,-1.4961832061068703
46:01:867558,-0.19309844970703127,2.979104919433594,2.070195007324219,-0.030534351145038167,-0.4961832061068702,-1.4809160305343512
46:01:867627,-0.31793884277343754,4.339476013183594,2.3644830322265626,0.17557251908396945,-0.8549618320610687,-0.8702290076335878
46:01:867777,0.46702880859375,4.6702880859375,2.417772216796875,-0.22900763358778625,-0.916030534351145,0.061068702290076333
46:01:917264,1.2768447875976563,4.856800231933594,1.7660275268554688,-0.9694656488549618,-0.7251908396946565,0.6946564885496183
46:02:045082,1.466949462890625,3.8790335083007816,0.9412426757812501,-1.2366412213740459,-0.29770992366412213,0.9541984732824427
46:02:045286,1.1391311645507813,2.0441491699218752,0.5559439086914063,-1.0610687022900762,-0.06870229007633588,1.0534351145038168
46:02:090846,0.9035211181640626,1.0238708496093751,0.9562115478515626,-0.8625954198473282,0.03816793893129771,0.916030534351145
46:02:090988,0.9460327148437501,0.61072998046875,1.88488037109375,-0.7938931297709924,0.0,0.5877862595419847
46:02:091074,1.24780517578125,0.5637277221679687,2.781515808105469,-0.4809160305343511,-0.09923664122137404,0.282442748091603
46:02:091189,1.5522720336914064,0.9861492919921876,3.1018496704101564,-0.32061068702290074,-0.022900763358778626,0.12213740458015267
46:02:225085,1.545685729980469,1.4322216796875,3.1716046142578125,-0.3282442748091603,0.04580152671755725,0.07633587786259542
46:02:272915,1.4813195800781251,1.4211447143554687,3.1527438354492188,-0.0916030534351145,0.061068702290076333,0.183206106870229
46:02:273052,1.275347900390625,1.2989987182617189,3.088377685546875,-0.06870229007633588,0.07633587786259542,0.13740458015267176
46:02:312954,1.24780517578125,1.1636801147460938,3.0252090454101563,0.007633587786259542,0.03816793893129771,0.12213740458015267
46:02:405175,1.2379257202148437,1.2184661865234376,2.9569509887695316,-0.04580152671755725,0.06870229007633588,0.061068702290076333
46:02:449111,1.2612771606445312,1.191222839355469,2.9162356567382814,-0.0916030534351145,-0.015267175572519083,0.06870229007633588
46:02:500937,1.2175680541992189,1.054706726074219,2.882106628417969,-0.05343511450381679,0.0,0.0
46:02:501225,1.0777587890625,0.8732839965820313,2.8518695068359374,-0.03816793893129771,-0.06870229007633588,-0.030534351145038167
46:02:586047,1.0780581665039064,0.803529052734375,2.8168423461914065,0.030534351145038167,-0.061068702290076333,-0.05343511450381679
46:02:629138,1.1271560668945313,0.8086184692382813,2.7898983764648437,-0.03816793893129771,-0.03816793893129771,-0.10687022900763359
46:02:678429,1.2549902343750001,0.671802978515625,2.7689419555664063,0.06870229007633588,-0.05343511450381679,-0.061068702290076333
46:02:813567,1.3939013671875,0.6122268676757813,2.7390042114257813,0.08396946564885496,-0.07633587786259542,-0.05343511450381679
46:02:864891,1.4498849487304688,0.5439688110351563,2.7351123046875,-0.03816793893129771,-0.11450381679389313,-0.07633587786259542
46:02:900939,1.4771282958984375,0.4727169799804688,2.741099853515625,-0.015267175572519083,-0.11450381679389313,-0.06870229007633588
46:02:901150,1.4145584106445312,0.5508544921875,2.7425967407226564,-0.022900763358778626,-0.061068702290076333,0.0
46:02:993266,1.375938720703125,0.5230123901367187,2.737207946777344,0.015267175572519083,-0.03816793893129771,0.0916030534351145
46:03:038546,1.319356384277344,0.5203179931640626,2.7273284912109377,-0.03816793893129771,0.015267175572519083,0.09923664122137404
46:03:082462,1.2612771606445312,0.3933819580078125,2.719245300292969,0.04580152671755725,-0.03816793893129771,0.13740458015267176
46:03:128903,1.311273193359375,0.296982421875,2.7066714477539064,0.09923664122137404,-0.015267175572519083,0.13740458015267176
46:03:129069,1.2804373168945313,0.28261230468750004,2.698588256835938,0.030534351145038167,-0.015267175572519083,0.08396946564885496
46:03:175242,1.0936257934570313,0.3203338623046875,2.6875112915039066,-0.007633587786259542,0.03816793893129771,0.030534351145038167
46:03:372926,0.8747808837890625,0.28351043701171874,2.6722430419921874,-0.015267175572519083,0.022900763358778626,0.0
46:03:396842,0.7864645385742188,0.16645385742187502,2.6632617187500003,0.06870229007633588,-0.05343511450381679,-0.03816793893129771
46:03:443635,0.7960446166992188,-0.10029144287109376,2.655477905273438,0.21374045801526717,-0.05343511450381679,-0.16030534351145037
46:03:486604,0.7840695190429688,-0.36793487548828124,2.518363037109375,0.33587786259541985,-0.04580152671755725,-0.35877862595419846
46:03:486766,0.6068380737304688,-0.8777746582031251,2.242935791015625,0.732824427480916,0.030534351145038167,-0.5267175572519084
46:03:486853,0.32841705322265624,-1.0472222900390626,2.0001406860351563,1.0534351145038168,0.19083969465648853,-0.8015267175572519
46:03:487014,0.00748443603515625,-1.308878173828125,2.2537133789062502,1.198473282442748,0.2595419847328244,-1.1908396946564885
46:03:533022,-0.2924917602539063,-0.8762777709960938,2.2180874633789065,1.2748091603053435,0.183206106870229,-1.3740458015267174
46:03:576889,0.08113128662109376,-0.2709365844726563,2.0420535278320315,1.083969465648855,0.2213740458015267,-1.4580152671755724
46:03:713027,0.8469387817382813,0.33829650878906253,2.1980291748046876,0.7862595419847328,0.1984732824427481,-1.2595419847328244
46:03:760807,2.1656964111328127,0.8855584716796876,1.8687139892578126,0.732824427480916,0.47328244274809156,-0.9312977099236641
46:03:845212,2.9099487304687504,2.1474343872070314,2.1165985107421874,0.16793893129770993,0.3969465648854962,-0.3282442748091603
46:03:845358,3.347039794921875,2.6327252197265625,2.0351678466796876,0.32061068702290074,0.5190839694656488,0.42748091603053434
46:03:889159,2.431842956542969,2.66565673828125,1.859732666015625,0.0,0.564885496183206,1.015267175572519
46:03:938420,0.9951306152343751,2.6447003173828127,1.4819183349609375,-0.15267175572519084,0.7862595419847328,1.3435114503816794
46:04:024946,-0.8894503784179688,2.282154235839844,1.1936178588867188,-0.24427480916030533,0.9694656488549618,1.4732824427480915
46:04:025199,-2.0818707275390627,1.6636404418945314,0.8214916992187501,-0.6259541984732824,1.0229007633587786,1.1755725190839694
46:04:074502,-2.4674688720703126,-0.006586303710937501,0.5463638305664062,-0.564885496183206,0.9694656488549618,0.9007633587786259
46:04:113150,-1.6938775634765626,-1.7720150756835937,0.8211923217773438,-0.33587786259541985,0.6717557251908397,0.41221374045801523
46:04:206160,-0.9735754394531251,-2.446512451171875,1.3097763061523438,-0.03816793893129771,0.13740458015267176,-0.10687022900763359
46:04:256786,-0.7349716186523438,-2.0175045776367186,1.447789306640625,0.35877862595419846,-0.3053435114503817,-0.4427480916030534
46:04:295496,-0.8951385498046875,-0.9553134155273438,1.2822335815429688,0.3511450381679389,-0.6641221374045801,-0.8396946564885496
46:04:384933,-1.244212646484375,-0.0700543212890625,1.2232562255859376,0.8549618320610687,-0.9007633587786259,-1.0076335877862594
46:04:385104,-1.1073971557617188,1.1636801147460938,0.7786807250976563,0.7251908396946565,-1.1908396946564885,-0.9770992366412213
46:04:437242,-0.456251220703125,1.7438735961914062,0.5894741821289062,0.04580152671755725,-1.0,-1.297709923664122
46:04:477766,0.9373507690429688,1.7396823120117189,0.5553451538085937,0.2213740458015267,-0.6870229007633587,-0.9694656488549618
46:04:522619,2.215093688964844,1.6483721923828125,0.7702981567382813,-0.282442748091603,-0.5114503816793893,-0.8625954198473282
46:04:610392,3.4455349731445315,1.313668212890625,0.5718109130859376,-0.1450381679389313,-0.3129770992366412,-0.34351145038167935
46:04:652469,3.860472106933594,1.48730712890625,0.3661386108398438,-0.10687022900763359,0.11450381679389313,0.2213740458015267
46:04:748953,3.190465393066406,1.4935940551757814,0.45535308837890626,-0.11450381679389313,0.3969465648854962,0.7557251908396946
46:04:749089,1.9498452758789064,1.9920574951171877,0.4793032836914063,-0.10687022900763359,0.7557251908396946,1.129770992366412
46:04:801455,0.2029779052734375,2.782713317871094,0.7622149658203126,-0.33587786259541985,0.8778625954198473,1.4351145038167938
46:04:841229,-1.2765454101562501,2.994672546386719,0.7173083496093751,-0.4580152671755725,0.8396946564885496,1.580152671755725
46:04:841425,-2.0806732177734375,2.509681091308594,0.47601013183593754,-0.732824427480916,0.7938931297709924,1.3435114503816794
46:04:879380,-2.30640380859375,1.3337265014648438,0.48828460693359377,-0.6106870229007634,0.5343511450381679,1.0687022900763359
46:04:969679,-1.93278076171875,-0.33709899902343754,0.49367340087890627,-0.1450381679389313,0.38167938931297707,0.7099236641221374
46:05:063222,-0.9271719360351564,-1.5402969360351564,0.8128097534179688,-0.061068702290076333,0.10687022900763359,0.061068702290076333
46:05:063378,-0.31404693603515627,-1.4750326538085938,1.134041748046875,0.06870229007633588,-0.24427480916030533,-0.6183206106870229
46:05:192880,-0.4888833618164063,-0.27333160400390627,1.1543994140625,0.183206106870229,-0.5343511450381679,-1.1068702290076335
46:05:284964,-0.9738748168945313,1.2136761474609377,1.2136761474609377,0.16030534351145037,-0.7404580152671756,-1.4122137404580153
46:05:329249,-0.8110134887695313,2.688110046386719,1.6349002075195314,-0.061068702290076333,-0.5725190839694656,-1.5725190839694656
46:05:329414,-0.101788330078125,3.4563125610351566,2.425256652832031,-0.08396946564885496,-0.6335877862595419,-1.1832061068702289
46:05:381007,1.1241622924804688,3.6518060302734376,2.5970993041992188,-0.2900763358778626,-0.6030534351145038,-0.3969465648854962
46:05:381225,1.8696121215820314,3.8583764648437504,2.2228775024414062,-0.9923664122137404,-0.47328244274809156,0.17557251908396945
46:05:421152,1.6726217651367188,2.9716204833984374,1.529219970703125,-1.1450381679389312,-0.35877862595419846,0.5877862595419847
46:05:561101,0.8448431396484375,1.6795074462890627,1.1427236938476564,-1.1450381679389312,-0.45038167938931295,0.8549618320610687
46:05:561375,0.2389031982421875,0.6110293579101563,1.13284423828125,-0.8473282442748091,-0.37404580152671757,0.8702290076335878
46:05:601119,0.15717315673828125,0.15627502441406252,1.5393988037109376,-0.7099236641221374,-0.32061068702290074,0.6946564885496183
46:05:643831,0.6403683471679688,0.0161663818359375,2.078577575683594,-0.4809160305343511,-0.16030534351145037,0.37404580152671757
46:05:688581,0.8843609619140625,0.3487747192382813,2.654879150390625,-0.35877862595419846,0.03816793893129771,0.17557251908396945
46:05:688839,0.7810757446289063,0.6601272583007813,2.912044372558594,-0.21374045801526717,-0.06870229007633588,0.1297709923664122
46:05:785516,0.801134033203125,0.8089178466796876,2.9554541015625,-0.06870229007633588,-0.061068702290076333,0.11450381679389313
46:05:825034,0.6825805664062501,0.9822573852539063,2.937790832519531,-0.1297709923664122,-0.03816793893129771,0.07633587786259542
46:05:825168,0.7580236816406251,0.9382489013671875,2.918331298828125,-0.03816793893129771,-0.015267175572519083,0.13740458015267176
46:05:962238,0.8161029052734375,0.8891510009765625,2.882106628417969,-0.13740458015267176,0.06870229007633588,0.022900763358778626
46:06:009060,0.7679031372070313,0.70892578125,2.8671377563476566,-0.09923664122137404,-0.04580152671755725,0.0
46:06:155877,0.7864645385742188,0.6592291259765626,2.850971374511719,-0.08396946564885496,-0.03816793893129771,-0.08396946564885496
46:06:156037,0.8289761352539063,0.6427633666992187,2.847378845214844,-0.11450381679389313,-0.10687022900763359,-0.0916030534351145
46:06:185261,0.9762698364257812,0.5313949584960938,2.844085693359375,-0.09923664122137404,0.0,-0.1297709923664122
46:06:185424,0.9933343505859376,0.45295806884765627,2.8330087280273437,-0.08396946564885496,-0.030534351145038167,-0.13740458015267176
46:06:185656,1.1541000366210938,0.34667907714843754,2.8204348754882815,0.030534351145038167,-0.007633587786259542,-0.09923664122137404
46:06:274056,1.31965576171875,0.354462890625,2.8003765869140627,0.022900763358778626,-0.007633587786259542,-0.061068702290076333
46:06:366197,1.3307327270507814,0.3373983764648438,2.7898983764648437,-0.015267175572519083,0.015267175572519083,-0.030534351145038167
46:06:366348,1.18553466796875,0.2951861572265625,2.7728338623046875,0.007633587786259542,0.007633587786259542,0.030534351145038167
46:06:409162,1.149609375,0.2173480224609375,2.761158142089844,0.030534351145038167,-0.022900763358778626,0.0916030534351145
46:06:496595,1.2049942016601562,0.18890716552734377,2.7509793090820316,0.04580152671755725,-0.015267175572519083,0.10687022900763359
46:06:544904,1.2370275878906252,0.1826202392578125,2.7396029663085937,0.06870229007633588,0.0,0.1297709923664122
46:06:545120,1.161285095214844,0.2137554931640625,2.724334716796875,0.03816793893129771,0.015267175572519083,0.11450381679389313
46:06:589388,1.0092013549804688,0.18920654296875,2.7093658447265625,0.007633587786259542,0.03816793893129771,0.07633587786259542
46:06:768847,0.8454418945312501,0.11047027587890626,2.6934988403320315,0.030534351145038167,0.022900763358778626,0.03816793893129771
46:06:786404,0.6562353515625,0.06735992431640625,2.682421875,0.007633587786259542,-0.04580152671755725,-0.06870229007633588
46:06:950346,0.49097900390625004,-0.0975970458984375,2.651885375976563,0.15267175572519084,-0.030534351145038167,-0.17557251908396945
46:06:950464,0.17124389648437502,-0.4293072509765625,2.630928955078125,0.3282442748091603,0.0916030534351145,-0.3969465648854962
46:06:950544,0.015567626953125,-1.0588980102539063,2.5776397705078127,0.564885496183206,0.1297709923664122,-0.7022900763358778
46:06:965229,0.08562194824218751,-1.5600558471679689,2.4231610107421875,0.6564885496183206,0.21374045801526717,-1.213740458015267
46:07:045094,0.0305364990234375,-1.7091458129882813,2.0172052001953125,0.9083969465648855,0.3053435114503817,-1.5267175572519083
46:07:086408,0.2029779052734375,-1.7055532836914062,1.4729370117187501,1.0610687022900762,0.5114503816793893,-1.7709923664122136
46:07:086646,0.7879614257812501,-1.1726614379882814,0.9613009643554687,1.2366412213740459,0.7175572519083969,-1.6564885496183206
46:07:132975,1.7100439453125,-0.03113525390625,0.8463400268554688,1.1068702290076335,0.6946564885496183,-1.2290076335877862
46:07:188916,2.2210812377929687,2.1040246582031252,1.2412188720703126,0.4580152671755725,0.8091603053435115,-0.8854961832061068
46:07:358290,2.5761428833007813,3.040177917480469,1.691781921386719,0.007633587786259542,0.6717557251908397,-0.2748091603053435
46:07:358459,2.0160076904296877,3.1323861694335937,1.791474609375,-0.564885496183206,0.6717557251908397,0.45038167938931295
46:07:409547,0.71611083984375,2.9054580688476563,2.036964111328125,-0.6106870229007634,0.6793893129770993,1.083969465648855
46:07:409684,-1.5864010620117188,2.92431884765625,1.8747015380859375,-0.5954198473282443,0.7786259541984732,1.7557251908396947
46:07:489104,-3.6338433837890625,2.4270529174804687,1.2995974731445312,-1.0305343511450382,0.8396946564885496,1.7404580152671756
46:07:489283,-4.351451110839844,0.6634204101562501,1.2714559936523437,-0.9923664122137404,0.34351145038167935,1.6564885496183206
46:07:537059,-3.306324462890625,-1.054706726074219,0.34937347412109376,-0.6183206106870229,-0.0916030534351145,1.465648854961832
46:07:668839,-1.8103353881835937,-1.8732046508789064,-0.026345214843750003,-0.2900763358778626,0.030534351145038167,0.9083969465648855
46:07:669124,-0.6601272583007813,-1.3400134277343752,0.28680358886718754,-0.8091603053435115,-0.07633587786259542,0.17557251908396945
46:07:762370,0.11346405029296876,-1.0624905395507813,1.1558963012695314,-0.5572519083969465,-0.2595419847328244,-0.37404580152671757
46:07:769275,0.6960525512695312,-0.5080435180664062,1.6351995849609375,-0.3053435114503817,-0.38167938931297707,-0.83206106870229
46:07:813641,1.0202783203125,-0.3200344848632813,1.7594412231445313,-0.04580152671755725,-0.16030534351145037,-1.3969465648854962
46:07:813803,0.9912387084960937,-0.45235931396484375,1.294208679199219,0.5038167938931297,-0.08396946564885496,-1.549618320610687
46:07:853657,1.13763427734375,-0.5948629760742188,0.6182144165039063,0.9541984732824427,0.10687022900763359,-1.4961832061068703
46:07:894625,1.7411791992187502,-0.28919860839843753,0.760418701171875,0.9923664122137404,-0.0916030534351145,-1.1755725190839694
46:07:941060,2.5938061523437503,1.2552896118164063,0.7786807250976563,0.4198473282442748,0.33587786259541985,-1.0610687022900762
46:08:077154,2.694097595214844,2.484533386230469,1.65974853515625,0.2595419847328244,0.183206106870229,-0.47328244274809156
46:08:097222,2.083068237304688,2.8865972900390626,1.9956500244140627,0.5190839694656488,0.19083969465648853,0.48854961832061067
46:08:097391,0.89334228515625,2.917732543945313,1.6561560058593752,0.015267175572519083,0.282442748091603,1.114503816793893
46:08:118273,-0.7116201782226563,2.681224365234375,1.2301419067382813,-0.23664122137404578,0.6106870229007634,1.4732824427480915
46:08:208903,-2.1633013916015624,1.7103433227539064,0.8568182373046875,-0.5343511450381679,0.8015267175572519,1.3358778625954197
46:08:301181,-2.9392877197265626,0.5733078002929688,0.6068380737304688,-0.7099236641221374,0.7862595419847328,1.1068702290076335
46:08:386600,-2.476150817871094,-1.2328363037109376,0.6741979980468751,-0.5114503816793893,0.48854961832061067,0.6793893129770993
46:08:496825,-1.4450949096679688,-1.8956579589843752,1.0460247802734375,-0.4961832061068702,0.03816793893129771,0.061068702290076333
46:08:496975,-0.756826171875,-0.5777984619140625,1.460662536621094,-0.33587786259541985,-0.4427480916030534,-0.37404580152671757
46:08:573109,-0.21704864501953125,1.6591497802734376,2.2608984375000003,-0.22900763358778625,-0.6870229007633587,-0.5190839694656488
46:08:617131,0.9412426757812501,2.9365933227539065,2.548600158691406,-0.5954198473282443,-0.8015267175572519,-0.564885496183206
46:08:709691,2.1180953979492188,3.447031860351563,2.412982177734375,-0.8396946564885496,-0.33587786259541985,-0.3511450381679389
46:08:709859,2.465373229980469,2.7632537841796876,2.009122009277344,-1.4198473282442747,-0.183206106870229,-0.17557251908396945
46:08:709979,2.166295166015625,1.6639398193359376,1.9309844970703125,-1.2442748091603053,-0.10687022900763359,-0.09923664122137404
46:08:793633,1.6723223876953126,1.251098327636719,1.9220031738281251,-0.9847328244274809,-0.22900763358778625,0.13740458015267176
46:08:886232,1.5067666625976563,0.6951544189453125,1.9522402954101563,-0.564885496183206,-0.08396946564885496,0.13740458015267176
46:08:886363,1.2160711669921875,0.6340814208984376,2.1525238037109378,-0.4961832061068702,-0.061068702290076333,0.08396946564885496
46:08:929219,0.9526190185546876,0.46912445068359376,2.707270202636719,-0.366412213740458,-0.19083969465648853,0.05343511450381679
46:08:980985,0.9406439208984375,0.41433837890625,2.9060568237304687,-0.030534351145038167,-0.16793893129770993,0.16030534351145037
46:09:110420,1.0370434570312501,0.64905029296875,2.9318032836914063,-0.030534351145038167,-0.13740458015267176,0.23664122137404578
46:09:110678,1.0277627563476563,0.6553372192382813,2.9404852294921877,-0.11450381679389313,-0.030534351145038167,0.183206106870229
46:09:171287,0.86939208984375,0.6541397094726563,2.9159362792968753,-0.030534351145038167,-0.07633587786259542,0.23664122137404578
46:09:337161,0.8861572265625001,0.5367837524414063,2.9063562011718753,-0.07633587786259542,-0.05343511450381679,0.10687022900763359
46:09:337334,0.8277786254882813,0.5595364379882812,2.886896667480469,-0.10687022900763359,0.030534351145038167,0.022900763358778626
46:09:382530,0.7283853149414062,0.5682183837890625,2.861748962402344,-0.0916030534351145,0.03816793893129771,0.022900763358778626
46:09:432821,0.820294189453125,0.4343966674804688,2.8360025024414064,-0.07633587786259542,0.04580152671755725,-0.06870229007633588
46:09:432954,0.7960446166992188,0.3335064697265625,2.8198361206054687,-0.1297709923664122,0.04580152671755725,-0.16030534351145037
46:09:561268,0.8292755126953125,0.21136047363281252,2.791095886230469,0.17557251908396945,0.015267175572519083,-0.09923664122137404
46:09:561427,1.0313552856445314,0.3299139404296875,2.741698608398438,0.26717557251908397,0.05343511450381679,-0.03816793893129771
46:09:561585,1.2331356811523437,0.18172210693359375,2.7036776733398438,0.24427480916030533,0.061068702290076333,-0.04580152671755725
46:09:609257,1.4220428466796875,0.15687377929687502,2.6794281005859375,0.04580152671755725,0.08396946564885496,-0.16793893129770993
46:09:609483,1.3148657226562501,0.2233355712890625,2.67523681640625,-0.12213740458015267,0.015267175572519083,-0.19083969465648853
46:09:694464,1.1987072753906252,0.168848876953125,2.6746380615234377,0.022900763358778626,0.0,-0.061068702290076333
46:09:740863,1.178349609375,0.17753082275390625,2.668351135253906,0.04580152671755725,0.007633587786259542,0.030534351145038167
46:09:741037,1.2020004272460938,0.1550775146484375,2.6611660766601566,-0.04580152671755725,0.05343511450381679,0.007633587786259542
46:09:829113,1.1541000366210938,0.12214599609375,2.6530828857421875,-0.022900763358778626,0.061068702290076333,0.03816793893129771
46:09:925201,1.1585906982421876,0.10298583984375001,2.6447003173828127,0.015267175572519083,0.030534351145038167,0.0916030534351145
46:09:925371,1.1436218261718751,0.06975494384765625,2.638413391113281,-0.015267175572519083,0.04580152671755725,0.06870229007633588
46:10:013034,1.0238708496093751,0.02065704345703125,2.6336233520507815,-0.007633587786259542,0.0,0.061068702290076333
46:10:013172,0.9786648559570313,-0.03861968994140625,2.6312283325195316,0.03816793893129771,0.0,0.015267175572519083
46:10:101012,0.8924441528320313,-0.0032931518554687503,2.625839538574219,0.022900763358778626,0.015267175572519083,-0.07633587786259542
46:10:148867,0.5718109130859376,-0.0868194580078125,2.618953857421875,-0.07633587786259542,-0.007633587786259542,-0.2595419847328244
46:10:196930,0.295784912109375,-0.488583984375,2.5944049072265627,0.16030534351145037,0.04580152671755725,-0.4198473282442748
46:10:321980,0.22962249755859376,-0.8092172241210938,2.395618286132813,0.48854961832061067,0.15267175572519084,-0.564885496183206
46:10:373254,0.21824615478515627,-1.1798464965820312,2.331252136230469,0.6946564885496183,0.2900763358778626,-0.8167938931297709
46:10:373435,0.12304412841796876,-1.65974853515625,2.4270529174804687,0.8167938931297709,0.42748091603053434,-1.1908396946564885
46:10:373578,-0.025746459960937502,-1.7139358520507812,2.2938299560546875,0.9923664122137404,0.6335877862595419,-1.6030534351145038
46:10:549437,-0.0383203125,-0.9445358276367188,2.4947122192382816,1.0076335877862594,0.3893129770992366,-1.4732824427480915
46:10:549599,0.97716796875,0.20387603759765627,2.2423370361328128,0.8778625954198473,0.35877862595419846,-1.1603053435114503
46:10:557407,2.1977297973632814,0.8364605712890626,1.9980450439453126,0.6870229007633587,0.46564885496183206,-0.7709923664122137
46:10:602592,3.2826736450195315,1.510059814453125,1.597178649902344,0.40458015267175573,0.6030534351145038,-0.35877862595419846
46:10:641237,3.6071987915039063,2.415377197265625,1.4747332763671877,0.45038167938931295,0.6259541984732824,0.4427480916030534
46:10:692901,3.0859826660156253,2.6566754150390626,1.327738952636719,0.3282442748091603,0.8015267175572519,1.0229007633587786
46:10:693086,1.3406121826171875,2.6806256103515627,1.3567785644531252,-0.04580152671755725,0.83206106870229,1.3740458015267174
46:10:728889,-0.3634442138671875,2.506088562011719,0.9313632202148437,0.007633587786259542,1.2519083969465647,1.549618320610687
46:10:777275,-2.352507934570313,1.6043637084960938,1.0768606567382812,-0.4351145038167939,1.2442748091603053,1.0610687022900762
46:10:912952,-2.9752130126953125,0.6607260131835938,0.9403445434570313,-0.7786259541984732,1.1526717557251909,0.6335877862595419
46:10:919423,-2.7928921508789064,-0.5682183837890625,0.9607022094726563,-0.7480916030534351,0.6030534351145038,0.4198473282442748
46:10:919517,-1.5648458862304688,-1.9010467529296875,1.144519958496094,-0.09923664122137404,0.09923664122137404,0.32061068702290074
46:10:954405,-0.6676116943359376,-2.4869284057617187,1.2531939697265626,0.11450381679389313,-0.32061068702290074,-0.15267175572519084
46:11:134476,-0.6110293579101563,-2.1022283935546877,1.1256591796875,0.366412213740458,-0.6717557251908397,-0.648854961832061
46:11:145951,-0.9888436889648438,-0.6415658569335938,0.70892578125,0.45038167938931295,-0.8473282442748091,-0.9923664122137404
46:11:189174,-1.014290771484375,0.9226812744140626,0.5837860107421875,0.5343511450381679,-0.83206106870229,-1.1221374045801527
46:11:189361,-0.4927752685546875,1.7417779541015626,0.765208740234375,0.46564885496183206,-0.8091603053435115,-1.114503816793893
46:11:317604,0.561632080078125,1.8019528198242187,1.071471862792969,0.20610687022900762,-0.6793893129770993,-1.099236641221374
46:11:361391,1.9890637207031252,1.5834072875976564,1.0472222900390626,0.10687022900763359,-0.564885496183206,-0.8091603053435115
46:11:361579,3.2997381591796877,1.2232562255859376,1.0316546630859376,0.0,-0.1984732824427481,-0.5190839694656488
46:11:361685,3.9505847167968753,1.1421249389648438,1.0190808105468752,-0.09923664122137404,-0.11450381679389313,0.030534351145038167
46:11:498529,3.9146594238281254,1.2017010498046876,0.5783972167968751,0.09923664122137404,0.3282442748091603,0.6259541984732824
46:11:504062,2.771336975097656,1.8259030151367188,0.5544470214843751,-0.2213740458015267,0.4809160305343511,1.045801526717557
46:11:540957,1.1879296875,2.568658447265625,0.3200344848632813,-0.17557251908396945,0.8702290076335878,1.4427480916030533
46:11:588872,-0.7463479614257813,3.120411071777344,0.27842102050781253,-0.48854961832061067,0.8702290076335878,1.5725190839694656
46:11:772912,-1.766326904296875,2.852168884277344,0.0718505859375,-0.6793893129770993,1.0610687022900762,1.4351145038167938
46:11:816895,-2.6458978271484375,1.5361056518554688,0.015567626953125,-0.5725190839694656,0.83206106870229,1.045801526717557
46:11:865075,-2.351609802246094,0.011975097656250001,0.3400927734375,-0.32061068702290074,0.5954198473282443,0.6106870229007634
46:11:865314,-1.4226416015625,-1.23822509765625,0.7583230590820312,0.007633587786259542,0.13740458015267176,0.23664122137404578
46:11:901264,-0.5394781494140626,-1.6462765502929688,1.1139834594726563,0.25190839694656486,-0.3893129770992366,-0.32061068702290074
46:11:949524,-0.41852966308593753,-0.501756591796875,1.1421249389648438,0.11450381679389313,-0.564885496183206,-1.0076335877862594
46:11:992949,-0.6128256225585937,1.4409036254882812,1.4864089965820313,0.1297709923664122,-0.8244274809160305,-1.2061068702290076
46:12:045086,-0.33679962158203125,2.9632379150390626,1.7929714965820314,0.24427480916030533,-0.8702290076335878,-1.015267175572519
46:12:045250,0.6487509155273438,3.4527200317382816,1.8537451171875001,-0.2595419847328244,-0.8854961832061068,-0.564885496183206
46:12:127089,1.7920733642578126,3.6778518676757814,1.4603631591796875,-0.9312977099236641,-0.5877862595419847,-0.022900763358778626
46:12:173015,1.9833755493164062,3.48954345703125,1.1382330322265626,-1.5114503816793892,-0.3511450381679389,0.38167938931297707
46:12:215956,1.4193484497070312,1.7929714965820314,0.8858578491210938,-1.4045801526717556,-0.35877862595419846,0.6259541984732824
46:12:256997,0.91729248046875,0.6747967529296875,0.8556207275390626,-1.16793893129771,-0.2748091603053435,0.6793893129770993
46:12:257141,0.6424639892578126,0.13711486816406251,1.2924124145507814,-0.9389312977099237,-0.22900763358778625,0.46564885496183206
46:12:396952,0.6942562866210937,-0.10328521728515626,1.9785855102539063,-0.38167938931297707,-0.08396946564885496,0.26717557251908397
46:12:442383,0.7846682739257813,0.2233355712890625,2.621049499511719,-0.09923664122137404,-0.022900763358778626,0.03816793893129771
46:12:484915,0.8535250854492188,0.7726931762695313,2.8865972900390626,-0.03816793893129771,0.07633587786259542,-0.05343511450381679
46:12:528213,0.963995361328125,1.1067984008789062,2.9063562011718753,-0.022900763358778626,0.007633587786259542,0.03816793893129771
46:12:580903,0.9714797973632813,1.1109896850585939,2.8800109863281254,-0.11450381679389313,0.09923664122137404,0.03816793893129771
46:12:581067,0.7694000244140625,0.8705895996093751,2.8554620361328125,-0.10687022900763359,0.022900763358778626,0.061068702290076333
46:12:621467,0.7125183105468751,0.8140072631835938,2.8267218017578126,-0.06870229007633588,0.05343511450381679,0.08396946564885496
46:12:664855,0.6667135620117188,0.79754150390625,2.806962890625,-0.183206106870229,0.007633587786259542,0.022900763358778626
46:12:757166,0.6846762084960938,0.661025390625,2.8048672485351562,-0.0916030534351145,-0.07633587786259542,0.007633587786259542
46:12:846351,0.7271878051757813,0.6209088134765626,2.8003765869140627,-0.08396946564885496,-0.0916030534351145,-0.061068702290076333
46:12:846541,0.7993377685546875,0.48798522949218753,2.801873474121094,0.0,-0.1297709923664122,-0.061068702290076333
46:12:893328,0.9729766845703125,0.49517028808593755,2.7916946411132812,-0.007633587786259542,-0.007633587786259542,-0.0916030534351145
46:12:975790,1.0139913940429688,0.5391787719726563,2.77822265625,-0.09923664122137404,0.007633587786259542,-0.0916030534351145
46:13:028909,1.09452392578125,0.3799099731445313,2.767445068359375,-0.007633587786259542,0.015267175572519083,-0.061068702290076333
46:13:068945,1.0606942749023438,0.27842102050781253,2.7617568969726562,-0.061068702290076333,-0.06870229007633588,-0.0916030534351145
46:13:165260,1.1085946655273438,0.257464599609375,2.7689419555664063,0.007633587786259542,-0.10687022900763359,-0.061068702290076333
46:13:165432,1.1427236938476564,0.2697390747070313,2.7737319946289065,0.04580152671755725,-0.09923664122137404,0.007633587786259542
46:13:210400,1.2370275878906252,0.3143463134765625,2.7725344848632814,0.04580152671755725,-0.030534351145038167,0.061068702290076333
46:13:210554,1.1930191040039062,0.2655477905273438,2.76145751953125,0.022900763358778626,0.007633587786259542,0.08396946564885496
46:13:306552,1.1576925659179689,0.1850152587890625,2.747985534667969,0.061068702290076333,0.015267175572519083,0.0916030534351145
46:13:382245,1.1295510864257814,0.1490899658203125,2.7321185302734374,0.07633587786259542,0.030534351145038167,0.0916030534351145
46:13:472981,1.088536376953125,0.10029144287109376,2.7162515258789064,0.05343511450381679,0.03816793893129771,0.061068702290076333
46:13:473148,0.9577084350585938,0.2173480224609375,2.698887634277344,-0.007633587786259542,0.05343511450381679,0.022900763358778626
46:13:522181,0.7472460937500001,0.24578887939453126,2.684517517089844,-0.07633587786259542,0.007633587786259542,0.015267175572519083
46:13:569121,0.6822811889648438,0.08083190917968751,2.6794281005859375,0.030534351145038167,-0.04580152671755725,0.007633587786259542
46:13:656912,0.6682104492187501,-0.01916015625,2.677332458496094,0.05343511450381679,-0.06870229007633588,-0.09923664122137404
46:13:657052,0.6852749633789063,-0.22962249755859376,2.6429040527343752,0.23664122137404578,-0.015267175572519083,-0.1984732824427481
46:13:702329,0.6403683471679688,-0.55803955078125,2.4402255249023437,0.5114503816793893,0.20610687022900762,-0.3969465648854962
46:13:752136,0.46762756347656254,-0.8640032958984375,2.3246658325195315,0.6870229007633587,0.33587786259541985,-0.6717557251908397
46:13:833177,0.3299139404296875,-1.30528564453125,2.434537353515625,0.7938931297709924,0.4427480916030534,-1.0687022900763359
46:13:881513,0.104183349609375,-1.2076885986328125,2.2854473876953127,0.9847328244274809,0.40458015267175573,-1.3053435114503815
46:13:933243,0.3359014892578125,-1.0618917846679687,2.0384609985351565,0.9465648854961831,0.549618320610687,-1.4732824427480915
46:14:017078,0.6125262451171876,-0.34338592529296874,2.232756958007813,1.114503816793893,0.3893129770992366,-1.083969465648855
46:14:017236,1.7597406005859375,0.34757720947265625,2.3848406982421877,1.0,0.4427480916030534,-0.8702290076335878
46:14:062461,2.510878601074219,2.12677734375,2.1381536865234376,-0.08396946564885496,0.29770992366412213,-0.5877862595419847
46:14:062633,3.359913024902344,2.2510189819335937,1.8223104858398438,0.38167938931297707,0.4809160305343511,0.3053435114503817
46:14:104962,3.0758038330078126,2.7168502807617188,1.4151571655273438,-0.0916030534351145,0.6412213740458015,0.8931297709923663
46:14:286475,1.7717156982421876,2.605182495117188,1.482217712402344,-0.1297709923664122,0.7022900763358778,1.381679389312977
46:14:336819,-0.27033782958984376,2.771636352539063,1.2091854858398439,-0.3511450381679389,0.7938931297709924,1.6412213740458015
46:14:388996,-2.0713925170898437,2.4516018676757816,0.9858499145507813,-0.5267175572519084,0.9312977099236641,1.4809160305343512
46:14:389233,-2.77103759765625,0.9157955932617188,0.6101312255859376,-0.4427480916030534,0.9389312977099237,1.129770992366412
46:14:416953,-2.3584954833984377,-1.0678793334960939,0.6032455444335938,-0.2595419847328244,0.7175572519083969,0.5954198473282443
46:14:516790,-1.6133450317382814,-2.0507354736328125,0.8292755126953125,-0.12213740458015267,0.32061068702290074,0.09923664122137404
46:14:516978,-1.0873388671875,-2.169588317871094,1.2972024536132813,0.19083969465648853,-0.2595419847328244,-0.282442748091603
46:14:558269,-1.1160791015625,-1.2531939697265626,1.3468991088867188,0.4961832061068702,-0.6870229007633587,-0.5877862595419847
46:14:693067,-1.1127859497070314,0.15896942138671877,1.0681787109375,0.4580152671755725,-0.9847328244274809,-0.9236641221374046
46:14:693234,-0.8095166015625,1.375938720703125,0.6520440673828125,0.6564885496183206,-1.045801526717557,-0.9618320610687022
46:14:700564,0.21794677734375,2.072889404296875,0.6289920043945313,0.26717557251908397,-0.8702290076335878,-1.0610687022900762
46:14:741840,1.1549981689453126,1.8782940673828126,0.9460327148437501,0.05343511450381679,-0.7022900763358778,-1.0076335877862594
46:14:782315,2.1444406127929687,1.2519964599609377,1.2025991821289064,0.061068702290076333,-0.5572519083969465,-0.7404580152671756
46:14:830615,3.170706481933594,0.6924600219726563,1.1070977783203126,0.022900763358778626,-0.46564885496183206,-0.366412213740458
46:14:873128,3.947890319824219,0.6637197875976563,0.4454736328125,0.08396946564885496,0.07633587786259542,0.06870229007633588
46:14:969197,3.635340270996094,1.3588742065429689,0.48409332275390626,-0.16030534351145037,0.33587786259541985,0.5267175572519084
46:15:009275,2.528242492675781,2.078577575683594,0.6242019653320313,0.022900763358778626,0.6564885496183206,1.114503816793893
46:15:142928,0.9717791748046876,2.8937823486328127,0.6029461669921875,-0.33587786259541985,0.8396946564885496,1.3587786259541985
46:15:143071,-0.5894741821289062,3.1680120849609374,0.5646258544921875,-0.366412213740458,0.9923664122137404,1.4961832061068703
46:15:181089,-1.6088543701171876,2.774330749511719,0.47900390625,-0.549618320610687,0.9236641221374046,1.2748091603053435
46:15:228879,-1.8043478393554688,1.8767971801757815,0.46253814697265627,-0.5801526717557252,0.7862595419847328,0.9236641221374046
46:15:328845,-2.1154010009765627,0.7298822021484376,0.4742138671875,-0.41221374045801523,0.6259541984732824,0.549618320610687
46:15:329017,-1.589095458984375,-0.7622149658203126,0.765208740234375,-0.007633587786259542,0.19083969465648853,0.1984732824427481
46:15:373863,-0.9499246215820313,-1.3810281372070312,1.1050021362304687,0.19083969465648853,-0.2900763358778626,-0.34351145038167935
46:15:374073,-0.820294189453125,-0.5978567504882812,1.2205618286132813,0.3282442748091603,-0.6335877862595419,-0.9541984732824427
46:15:453473,-0.8427474975585938,1.3430072021484376,1.349593505859375,0.25190839694656486,-0.8549618320610687,-1.4198473282442747
46:15:632835,-0.37661682128906254,3.0793963623046876,1.7660275268554688,-0.23664122137404578,-0.8702290076335878,-1.450381679389313
46:15:632975,0.9696835327148438,3.6152819824218754,2.4995022583007813,-0.4809160305343511,-0.7709923664122137,-0.8244274809160305
46:15:685084,2.2183868408203127,3.904779968261719,1.9606228637695313,-1.2366412213740459,-0.564885496183206,-0.0916030534351145
46:15:729028,2.2519171142578127,3.7607794189453125,1.2831317138671876,-1.7633587786259541,-0.4427480916030534,0.34351145038167935
46:15:770509,1.581910400390625,1.8720071411132813,0.7810757446289063,-1.2442748091603053,-0.366412213740458,0.7251908396946565
46:15:858454,0.8813671875000001,0.6005511474609375,0.7816744995117187,-0.8549618320610687,-0.29770992366412213,0.7938931297709924
46:15:858695,0.5652246093750001,0.03981719970703125,1.2585827636718752,-0.7022900763358778,-0.15267175572519084,0.5343511450381679
46:15:909079,0.5583389282226563,0.00808319091796875,2.0480410766601564,-0.48854961832061067,-0.0916030534351145,0.2595419847328244
46:15:909237,0.6553372192382813,0.23381378173828127,2.8132498168945315,-0.282442748091603,-0.03816793893129771,-0.015267175572519083
46:15:997046,0.7798782348632813,0.7301815795898438,3.009042663574219,-0.12213740458015267,-0.1297709923664122,0.015267175572519083
46:16:042253,0.9720785522460939,1.0244696044921875,3.0207183837890628,0.007633587786259542,-0.08396946564885496,0.13740458015267176
46:16:042443,0.9289682006835938,0.9810598754882813,3.0123358154296875,-0.12213740458015267,-0.16793893129770993,0.16030534351145037
46:16:086169,0.8487350463867188,0.6409671020507813,3.0057495117187503,-0.05343511450381679,-0.061068702290076333,0.08396946564885496
46:16:132802,0.9068142700195313,0.6104306030273438,2.9746142578125,0.0,-0.03816793893129771,0.08396946564885496
46:16:224839,0.9445358276367188,0.7065307617187501,2.933599548339844,-0.061068702290076333,0.06870229007633588,0.022900763358778626
46:16:266238,0.8711883544921876,0.5849835205078125,2.8979736328125,0.030534351145038167,-0.030534351145038167,0.0916030534351145
46:16:266397,1.0026150512695313,0.5086422729492188,2.856958923339844,0.09923664122137404,0.022900763358778626,0.030534351145038167
46:16:309292,0.9166937255859375,0.6164181518554688,2.827919311523438,-0.08396946564885496,0.007633587786259542,-0.04580152671755725
46:16:401653,0.7924520874023437,0.45146118164062504,2.805765380859375,0.030534351145038167,-0.015267175572519083,-0.030534351145038167
46:16:448880,0.9439370727539063,0.38470001220703126,2.781815185546875,0.09923664122137404,-0.030534351145038167,-0.015267175572519083
46:16:488875,1.1771520996093752,0.3251239013671875,2.758763122558594,0.05343511450381679,0.030534351145038167,-0.05343511450381679
46:16:537134,1.2666659545898438,0.2796185302734375,2.7402017211914065,0.030534351145038167,0.030534351145038167,-0.06870229007633588
46:16:584930,1.2406201171875,0.26075775146484376,2.7237359619140626,0.04580152671755725,0.022900763358778626,-0.05343511450381679
46:16:621068,1.287322998046875,0.30716125488281254,2.708467712402344,0.06870229007633588,0.030534351145038167,-0.022900763358778626
46:16:672836,1.1729608154296876,0.43798919677734377,2.6934988403320315,-0.022900763358778626,0.04580152671755725,0.0
46:16:768978,1.0648855590820312,0.34278717041015627,2.68481689453125,0.0,-0.015267175572519083,0.05343511450381679
46:16:805471,1.0687774658203126,0.22363494873046877,2.681823120117188,0.022900763358778626,-0.030534351145038167,0.04580152671755725
46:16:892937,1.1268566894531251,0.08232879638671875,2.6836193847656253,0.03816793893129771,-0.05343511450381679,0.022900763358778626
46:16:893167,1.1606863403320313,0.034129028320312504,2.6842181396484377,0.061068702290076333,-0.022900763358778626,-0.015267175572519083
46:16:985986,1.0747650146484375,0.039218444824218754,2.6800268554687503,0.08396946564885496,-0.022900763358778626,-0.015267175572519083
46:17:029083,1.0163864135742189,0.09041198730468751,2.67523681640625,0.06870229007633588,-0.007633587786259542,-0.022900763358778626
46:17:071085,0.9361532592773438,0.17064514160156252,2.668351135253906,-0.022900763358778626,0.007633587786259542,-0.04580152671755725
46:17:122246,0.7810757446289063,0.0916094970703125,2.662962341308594,-0.06870229007633588,-0.015267175572519083,-0.0916030534351145
46:17:122411,0.6658154296875001,-0.19369720458984377,2.661764831542969,0.061068702290076333,-0.061068702290076333,-0.183206106870229
46:17:213016,0.58198974609375,-0.43798919677734377,2.5737478637695315,0.20610687022900762,0.015267175572519083,-0.3893129770992366
46:17:251144,0.3757186889648438,-0.7532336425781251,2.2369482421875,0.4961832061068702,0.07633587786259542,-0.564885496183206
46:17:436919,0.2903961181640625,-1.2612771606445312,2.1743783569335937,0.83206106870229,0.282442748091603,-0.8549618320610687
46:17:437123,0.02365081787109375,-1.3612692260742187,2.1773721313476564,0.8549618320610687,0.45038167938931295,-1.2519083969465647
46:17:445072,-0.37362304687500003,-1.2064910888671876,2.545606384277344,0.8473282442748091,0.4427480916030534,-1.618320610687023
46:17:478457,-0.23501129150390626,-0.5511538696289062,2.6599685668945314,0.7099236641221374,0.4427480916030534,-1.6946564885496183
46:17:478652,0.31344818115234374,-0.20507354736328126,2.9258157348632814,0.6641221374045801,0.21374045801526717,-1.534351145038168
46:17:569038,1.4594650268554688,0.4044589233398438,2.4899221801757814,1.3740458015267174,-0.0916030534351145,-0.8549618320610687
46:17:613198,3.0000613403320315,2.4566912841796875,1.2244537353515625,0.04580152671755725,0.13740458015267176,-0.5190839694656488
46:17:613352,3.4584082031250003,2.985391845703125,1.3864169311523438,0.22900763358778625,0.5267175572519084,0.366412213740458
46:17:664895,3.0000613403320315,2.5908123779296877,1.3897100830078126,0.3511450381679389,0.7862595419847328,1.0687022900763359
46:17:704952,1.5837066650390625,2.482138366699219,1.5977774047851563,-0.1297709923664122,1.0381679389312977,1.282442748091603
46:17:885071,-0.18651214599609375,2.635120239257813,1.7414785766601564,-0.2213740458015267,1.0763358778625953,1.549618320610687
46:17:893121,-1.7244140625000002,2.3968157958984375,1.1654763793945313,-0.34351145038167935,1.2290076335877862,1.5954198473282442
46:17:932892,-2.4908203125,1.153201904296875,0.7897576904296876,-0.7480916030534351,1.2671755725190839,1.0381679389312977
46:17:933120,-2.7018814086914062,-0.1826202392578125,0.7765850830078126,-0.6793893129770993,0.8091603053435115,0.6335877862595419
46:17:972905,-2.0677999877929687,-1.577120361328125,0.7969427490234375,-0.549618320610687,0.3511450381679389,0.23664122137404578
46:18:081163,-1.2600796508789063,-2.4668701171875003,1.0903326416015626,0.15267175572519084,-0.25190839694656486,-0.08396946564885496
46:18:156805,-0.8406518554687501,-1.778302001953125,1.0394384765625,0.5343511450381679,-0.5114503816793893,-0.5114503816793893
46:18:156937,-0.9211843872070313,-0.4125421142578125,1.084644470214844,0.5190839694656488,-0.8167938931297709,-0.8854961832061068
46:18:198785,-0.8975335693359375,1.0582992553710937,1.0433303833007812,0.6641221374045801,-0.8549618320610687,-1.045801526717557
46:18:252960,-0.6125262451171876,2.3333477783203125,1.229543151855469,0.4427480916030534,-0.9923664122137404,-1.045801526717557
46:18:380957,0.5652246093750001,2.3303540039062502,1.25259521484375,0.20610687022900762,-0.7633587786259541,-1.0
46:18:429122,1.575623474121094,1.8040484619140627,1.4858102416992187,-0.22900763358778625,-0.6259541984732824,-1.0229007633587786
46:18:469582,2.9425808715820314,1.179547119140625,1.0720706176757813,-0.10687022900763359,-0.5038167938931297,-0.648854961832061
46:18:469762,4.044888610839844,0.9954299926757812,0.48648834228515625,0.007633587786259542,-0.10687022900763359,-0.0916030534351145
46:18:517476,4.062851257324219,1.0472222900390626,0.23261627197265627,-0.12213740458015267,0.21374045801526717,0.42748091603053434
46:18:609167,3.2563284301757816,1.1660751342773439,0.39996826171875,0.11450381679389313,0.5267175572519084,0.9770992366412213
46:18:609306,2.039658508300781,2.3306533813476564,0.44846740722656253,-0.19083969465648853,0.7557251908396946,1.2748091603053435
46:18:657006,0.3802093505859375,3.177592163085938,0.7457492065429688,-0.19083969465648853,0.9770992366412213,1.564885496183206
46:18:697043,-1.0451266479492187,3.3260833740234377,1.0301577758789062,-0.4809160305343511,0.9465648854961831,1.4732824427480915
46:18:784891,-1.9624191284179688,2.6399102783203126,1.028660888671875,-0.5725190839694656,0.8015267175572519,1.114503816793893
46:18:916133,-2.3641836547851565,1.7780026245117189,0.9867480468750001,-0.6106870229007634,0.564885496183206,0.7404580152671756
46:18:916292,-1.9462527465820314,0.5481600952148438,0.9421408081054689,-0.42748091603053434,0.2595419847328244,0.41221374045801523
46:18:968828,-1.1666738891601562,-0.00718505859375,1.2289443969726563,-0.34351145038167935,-0.21374045801526717,0.015267175572519083
46:18:969016,-0.17663269042968752,0.28800109863281254,1.783092041015625,-0.20610687022900762,-0.32061068702290074,-0.4580152671755725
46:19:125052,0.6274951171875001,1.7142352294921877,2.3426284790039062,-0.2595419847328244,-0.47328244274809156,-0.8549618320610687
46:19:125220,1.7881814575195314,3.649710388183594,2.501597900390625,-0.564885496183206,-0.4961832061068702,-0.7251908396946565
46:19:148870,2.6728417968750002,4.07871826171875,2.5246499633789066,-1.0610687022900762,0.015267175572519083,-0.3969465648854962
46:19:188846,2.8392956542968752,3.160827026367188,2.375559997558594,-1.366412213740458,-0.022900763358778626,-0.007633587786259542
46:19:189040,2.574945373535156,1.4028826904296876,2.076182556152344,-1.2213740458015268,0.007633587786259542,0.12213740458015267
46:19:281150,2.0971389770507813,0.389190673828125,1.88488037109375,-0.7633587786259541,-0.10687022900763359,0.05343511450381679
46:19:329089,1.6699273681640625,0.4098477172851563,1.809437255859375,-0.6870229007633587,-0.04580152671755725,-0.12213740458015267
46:19:329317,1.1546987915039064,0.5038522338867187,2.3513104248046877,-0.5114503816793893,-0.061068702290076333,-0.1984732824427481
46:19:369062,0.9253756713867188,0.389190673828125,2.83809814453125,-0.03816793893129771,-0.15267175572519084,-0.12213740458015267
46:19:417464,1.011895751953125,0.5930667114257813,2.918031921386719,0.015267175572519083,-0.08396946564885496,-0.09923664122137404
46:19:509546,1.1088940429687502,0.6352789306640625,2.9306057739257816,-0.030534351145038167,-0.1450381679389313,-0.04580152671755725
46:19:545650,1.1834390258789063,0.6236032104492187,2.9165350341796876,0.030534351145038167,-0.022900763358778626,0.03816793893129771
46:19:591028,1.1478131103515625,0.549656982421875,2.884501647949219,0.06870229007633588,-0.030534351145038167,0.08396946564885496
46:19:685245,1.05141357421875,0.4544549560546875,2.8527676391601564,0.022900763358778626,0.04580152671755725,0.05343511450381679
46:19:781351,0.9020242309570313,0.47690826416015625,2.815345458984375,0.015267175572519083,0.04580152671755725,0.061068702290076333
46:19:781555,0.93166259765625,0.3718267822265625,2.7836114501953126,0.007633587786259542,0.05343511450381679,0.04580152671755725
46:19:820900,0.9645941162109376,0.30805938720703124,2.765050048828125,-0.08396946564885496,0.022900763358778626,-0.04580152671755725
46:19:821061,0.9029223632812501,0.23980133056640626,2.7590625,-0.030534351145038167,-0.05343511450381679,-0.061068702290076333
46:19:910256,0.9475296020507813,0.250279541015625,2.7533743286132815,-0.030534351145038167,-0.030534351145038167,-0.08396946564885496
46:19:950665,1.0600955200195312,0.14639556884765625,2.745590515136719,-0.022900763358778626,0.015267175572519083,-0.09923664122137404
46:20:049716,1.2187655639648438,0.01526824951171875,2.7321185302734374,0.04580152671755725,0.04580152671755725,-0.08396946564885496
46:20:049880,1.3199551391601563,0.02903961181640625,2.7168502807617188,0.05343511450381679,0.015267175572519083,-0.061068702290076333
46:20:088860,1.3525872802734376,0.07334747314453126,2.712060241699219,0.007633587786259542,0.0,-0.061068702290076333
46:20:137631,1.242715759277344,0.077838134765625,2.7102639770507815,0.03816793893129771,-0.04580152671755725,0.015267175572519083
46:20:224838,1.2091854858398439,0.09370513916015626,2.708467712402344,0.022900763358778626,-0.015267175572519083,0.03816793893129771
46:20:318118,1.1127859497070314,0.12304412841796876,2.7057733154296875,-0.07633587786259542,-0.015267175572519083,0.030534351145038167
46:20:318343,1.0987152099609376,0.025746459960937502,2.7042764282226566,-0.03816793893129771,0.007633587786259542,0.007633587786259542
46:20:361124,1.16158447265625,-0.035326538085937505,2.697989501953125,0.06870229007633588,-0.015267175572519083,0.04580152671755725
46:20:408923,1.2849279785156251,-0.08891510009765625,2.695594482421875,0.06870229007633588,-0.007633587786259542,0.03816793893129771
46:20:497314,1.1798464965820312,-0.08083190917968751,2.6911038208007816,0.030534351145038167,-0.007633587786259542,0.015267175572519083
46:20:497507,1.0304571533203126,-0.07634124755859376,2.6851162719726562,0.061068702290076333,0.0,0.015267175572519083
46:20:589035,0.9035211181640626,0.006885681152343751,2.676134948730469,-0.05343511450381679,0.022900763358778626,-0.05343511450381679
46:20:632943,0.7406597900390626,-0.15328125,2.6710455322265627,-0.022900763358778626,-0.03816793893129771,-0.1450381679389313
46:20:672944,0.5179229736328125,-0.355660400390625,2.6623635864257813,0.061068702290076333,-0.015267175572519083,-0.35877862595419846
46:20:673106,0.20597167968750002,-0.5888754272460938,2.306104431152344,-0.07633587786259542,0.1297709923664122,-0.7251908396946565
46:20:769079,0.12723541259765625,-1.3702505493164063,2.0516336059570315,0.08396946564885496,0.5954198473282443,-1.16793893129771
46:20:809090,-0.08113128662109376,-1.577120361328125,2.079775085449219,0.8167938931297709,0.8244274809160305,-1.282442748091603
46:20:854649,-0.03113525390625,-1.4067745971679688,2.2411395263671876,1.0916030534351144,0.8244274809160305,-1.4809160305343512
46:21:037093,0.5583389282226563,-0.39697448730468754,2.509681091308594,0.7709923664122137,0.8244274809160305,-1.3969465648854962
46:21:037275,1.658551025390625,0.247884521484375,2.5970993041992188,0.6183206106870229,0.6946564885496183,-1.0305343511450382
46:21:080979,2.7641519165039066,0.8295748901367188,2.498903503417969,0.5725190839694656,0.8244274809160305,-0.6564885496183206
46:21:081146,3.150648193359375,2.226170654296875,2.2010229492187503,0.29770992366412213,0.6335877862595419,-0.061068702290076333
46:21:081343,3.236868896484375,2.8928842163085937,2.3378384399414065,0.5801526717557252,0.5954198473282443,0.7709923664122137
46:21:129234,2.425556030273438,2.934797058105469,2.4204666137695314,0.42748091603053434,0.4961832061068702,1.3740458015267174
46:21:217030,1.0235714721679687,2.7521768188476563,2.6698480224609376,0.34351145038167935,0.6030534351145038,1.66412213740458
46:21:313152,-0.8331674194335938,2.7943890380859377,2.6420059204101562,-0.05343511450381679,0.6641221374045801,1.7175572519083968
46:21:313290,-2.3857388305664062,2.2088067626953127,2.0974383544921875,-0.022900763358778626,0.648854961832061,1.618320610687023
46:21:348804,-2.978206787109375,0.8705895996093751,1.29570556640625,-0.2900763358778626,0.9236641221374046,0.9541984732824427
46:21:393238,-2.9395870971679687,-0.7837701416015626,1.148411865234375,-0.4198473282442748,0.549618320610687,0.5267175572519084
46:21:496712,-1.7330960083007814,-2.242037658691406,1.3250445556640627,-0.015267175572519083,0.2213740458015267,0.05343511450381679
46:21:528920,-1.1597882080078126,-1.8989511108398438,1.55197265625,0.06870229007633588,-0.37404580152671757,-0.4427480916030534
46:21:529089,-1.0831475830078126,-0.63947021484375,1.2555889892578125,0.183206106870229,-0.6412213740458015,-0.8473282442748091
46:21:572958,-1.191522216796875,0.36793487548828124,1.0406359863281252,0.3893129770992366,-0.7404580152671756,-1.1603053435114503
46:21:621169,-0.8675958251953125,1.7974621582031252,1.088536376953125,0.23664122137404578,-0.7175572519083969,-1.381679389312977
46:21:712962,0.20507354736328126,2.300116882324219,1.3858181762695314,0.04580152671755725,-0.549618320610687,-1.4351145038167938
46:21:801182,1.57352783203125,2.2112017822265626,1.5759228515625001,-0.13740458015267176,-0.38167938931297707,-1.3358778625954197
46:21:801322,3.2515383911132814,1.8675164794921877,1.627116394042969,0.015267175572519083,-0.23664122137404578,-0.8473282442748091
46:21:845115,4.285588073730469,1.957928466796875,1.4543756103515626,-0.061068702290076333,-0.15267175572519084,-0.15267175572519084
46:21:892980,4.393363952636719,1.9306851196289063,0.8753796386718751,0.3893129770992366,0.04580152671755725,0.8625954198473282
46:22:025362,3.2323782348632815,1.8636245727539062,0.6355783081054688,-0.0916030534351145,0.46564885496183206,1.2366412213740459
46:22:080891,1.593885498046875,2.245031433105469,1.148411865234375,-0.20610687022900762,0.5114503816793893,1.5419847328244274
46:22:081063,-0.15657440185546875,3.237168273925781,1.4465917968750002,-0.19083969465648853,0.5954198473282443,1.8015267175572518
46:22:081182,-1.2714559936523437,3.4108071899414063,1.3289364624023439,-0.2748091603053435,0.5572519083969465,1.7175572519083968
46:22:116923,-2.0950433349609376,2.8958779907226564,1.0103988647460938,-0.10687022900763359,0.732824427480916,1.213740458015267
46:22:209188,-2.801274719238281,1.8244061279296875,0.7933502197265625,-0.38167938931297707,0.564885496183206,0.7557251908396946
46:22:296976,-2.1788690185546877,-0.4544549560546875,1.0071057128906251,-0.11450381679389313,0.366412213740458,0.1984732824427481
46:22:297147,-0.908909912109375,-1.6328045654296877,1.4651531982421875,0.0916030534351145,-0.282442748091603,-0.6793893129770993
46:22:339183,-0.9322613525390625,-1.1035052490234376,1.3921051025390625,0.29770992366412213,-0.6106870229007634,-1.2671755725190839
46:22:386272,-1.5382012939453127,0.6508465576171876,1.340911560058594,0.26717557251908397,-0.8625954198473282,-1.816793893129771
46:22:475144,-1.5286212158203125,2.8309130859375,1.725312194824219,-0.09923664122137404,-0.916030534351145,-1.8854961832061068
46:22:566356,-0.053887939453125006,3.4745745849609375,2.5426126098632813,-0.10687022900763359,-0.9389312977099237,-1.0076335877862594
46:22:566535,2.5093817138671874,3.7580850219726565,2.1049227905273438,-1.0076335877862594,-1.0229007633587786,0.5343511450381679
46:22:613334,2.757565612792969,3.8490957641601566,1.0268646240234376,-1.5877862595419847,-0.13740458015267176,0.8702290076335878
46:22:650826,1.2663665771484376,1.5250286865234375,0.41882904052734377,-1.4809160305343512,-0.15267175572519084,1.0305343511450382
46:22:702273,0.33410522460937503,0.11017089843750001,0.6101312255859376,-0.8778625954198473,-0.09923664122137404,1.0076335877862594
46:22:786553,0.2616558837890625,-0.20447479248046876,1.3382171630859376,-0.7862595419847328,-0.10687022900763359,0.6030534351145038
46:22:841132,0.6221063232421875,0.09909393310546875,2.3105950927734376,-0.42748091603053434,0.0,0.16793893129770993
46:22:841265,0.7930508422851563,0.7499404907226563,2.894081726074219,-0.3893129770992366,-0.08396946564885496,0.05343511450381679
46:22:881155,0.8912466430664063,0.9116043090820313,3.0132339477539065,-0.0916030534351145,0.030534351145038167,0.022900763358778626
46:22:926556,0.8436456298828126,0.9391470336914063,3.0183233642578124,0.03816793893129771,-0.21374045801526717,0.183206106870229
46:23:017406,1.031055908203125,0.8247848510742188,2.9958700561523437,-0.03816793893129771,-0.061068702290076333,0.061068702290076333
46:23:109074,1.0475216674804688,0.65863037109375,2.975512390136719,-0.06870229007633588,0.022900763358778626,0.007633587786259542
46:23:109269,0.9604028320312501,0.7256909179687501,2.920726318359375,0.007633587786259542,0.11450381679389313,0.0
46:23:153512,0.9145980834960938,0.7780819702148438,2.8719277954101563,-0.015267175572519083,0.05343511450381679,-0.007633587786259542
46:23:196978,0.8436456298828126,0.7840695190429688,2.842588806152344,-0.08396946564885496,-0.022900763358778626,-0.04580152671755725
46:23:283990,0.8643026733398438,0.5254074096679687,2.827320556640625,0.007633587786259542,-0.061068702290076333,-0.05343511450381679
46:23:376978,0.9304650878906251,0.39996826171875,2.812651062011719,-0.030534351145038167,-0.030534351145038167,-0.11450381679389313
46:23:377134,1.0385403442382812,0.389190673828125,2.798280944824219,-0.022900763358778626,-0.007633587786259542,-0.0916030534351145
46:23:420909,1.210682373046875,0.23111938476562502,2.784808959960938,0.061068702290076333,-0.015267175572519083,-0.06870229007633588
46:23:470609,1.2986993408203125,0.28889923095703124,2.7737319946289065,0.015267175572519083,-0.06870229007633588,-0.061068702290076333
46:23:560900,1.2924124145507814,0.28261230468750004,2.7764263916015626,-0.015267175572519083,-0.07633587786259542,-0.03816793893129771
46:23:561093,1.2678634643554687,0.250279541015625,2.7788214111328124,0.022900763358778626,-0.061068702290076333,0.022900763358778626
46:23:649306,1.2786410522460938,0.18142272949218752,2.774330749511719,0.022900763358778626,-0.007633587786259542,0.061068702290076333
46:23:649507,1.2876223754882814,0.18411712646484377,2.762355651855469,0.04580152671755725,-0.007633587786259542,0.08396946564885496
46:23:693169,1.2855267333984375,0.2484832763671875,2.7533743286132815,0.030534351145038167,-0.015267175572519083,0.0916030534351145
46:23:730694,1.2585827636718752,0.18232086181640625,2.7467880249023438,0.030534351145038167,0.0,0.06870229007633588
46:23:824947,1.129251708984375,0.10687774658203125,2.7363098144531253,0.05343511450381679,0.022900763358778626,0.06870229007633588
46:23:928877,1.1238629150390627,-0.01916015625,2.721640319824219,0.12213740458015267,0.007633587786259542,0.0916030534351145
46:23:929011,1.0744656372070314,0.14130615234375002,2.7036776733398438,-0.05343511450381679,0.061068702290076333,-0.015267175572519083
46:23:955716,0.7331753540039063,0.25417144775390627,2.6914031982421878,-0.1450381679389313,0.015267175572519083,-0.04580152671755725
46:24:136301,0.6583309936523438,-0.15058685302734376,2.682421875,0.183206106870229,-0.04580152671755725,-0.03816793893129771
46:24:136467,0.7912545776367188,-0.18621276855468752,2.6758355712890625,0.06870229007633588,-0.015267175572519083,-0.2595419847328244
46:24:161971,0.7637118530273438,-0.3203338623046875,2.6662554931640625,0.1297709923664122,0.061068702290076333,-0.40458015267175573
46:24:162271,0.6143225097656251,-0.6355783081054688,2.585423583984375,0.3969465648854962,0.20610687022900762,-0.6183206106870229
46:24:184853,0.5493576049804688,-0.8448431396484375,2.5641677856445315,0.46564885496183206,0.38167938931297707,-0.8854961832061068
46:24:228981,0.374820556640625,-1.0157876586914063,2.5530908203125002,0.4198473282442748,0.5725190839694656,-1.2290076335877862
46:24:276790,0.10627899169921876,-0.8262817382812501,2.5635690307617187,0.5954198473282443,0.5572519083969465,-1.3282442748091603
46:24:366112,0.34278717041015627,-0.5313949584960938,2.611768798828125,0.5572519083969465,0.41221374045801523,-1.3358778625954197
46:24:416914,1.1289523315429688,-0.13172607421875002,2.608775024414063,0.5190839694656488,0.33587786259541985,-1.2213740458015268
46:24:417051,2.4632775878906252,-0.02963836669921875,1.6959732055664063,0.8473282442748091,0.12213740458015267,-0.648854961832061
46:24:505255,4.154161376953125,1.093027038574219,-0.24069946289062502,0.8778625954198473,0.7022900763358778,-0.13740458015267176
46:24:549111,4.01165771484375,2.532134399414063,0.02005828857421875,0.4580152671755725,1.1526717557251909,0.4809160305343511
46:24:773726,2.2255718994140627,2.721640319824219,1.7121395874023437,0.7099236641221374,1.129770992366412,1.3893129770992365
46:24:779465,0.6496490478515625,2.6994863891601564,2.482138366699219,-0.03816793893129771,1.1832061068702289,1.534351145038168
46:24:779570,-1.999541931152344,2.817441101074219,3.094365234375,-0.41221374045801523,0.8702290076335878,1.7022900763358777
46:24:779665,-3.0838870239257816,2.2273681640625003,2.085762634277344,-0.2900763358778626,0.6641221374045801,1.5877862595419847
46:24:817039,-3.3545242309570313,0.23710693359375,0.6655160522460938,-0.5877862595419847,0.8091603053435115,0.7099236641221374
46:24:948748,-2.3453228759765627,-1.9845730590820314,0.65384033203125,-0.42748091603053434,0.4351145038167939,0.12213740458015267
46:24:948885,-1.3950988769531252,-3.101250915527344,1.0460247802734375,0.37404580152671757,-0.03816793893129771,-0.366412213740458
46:24:973258,-1.2037966918945313,-2.468367004394531,1.1705657958984375,0.6412213740458015,-0.564885496183206,-0.7557251908396946
46:24:973565,-1.625020751953125,-0.6855743408203125,0.9762698364257812,0.564885496183206,-0.8778625954198473,-1.3206106870229006
46:25:048842,-1.8127304077148438,1.3600717163085938,1.043031005859375,0.5572519083969465,-1.0076335877862594,-1.534351145038168
46:25:090269,-0.8331674194335938,2.771935729980469,1.2139755249023438,0.4351145038167939,-1.0,-1.3358778625954197
46:25:269051,0.5373825073242188,3.0350885009765625,1.3810281372070312,-0.022900763358778626,-0.8473282442748091,-1.1908396946564885
46:25:311855,2.3752606201171877,2.458487548828125,0.9873468017578125,-0.08396946564885496,-0.6564885496183206,-0.7022900763358778
46:25:352855,3.6512072753906253,1.9642153930664064,0.6259982299804688,-0.2748091603053435,-0.33587786259541985,-0.40458015267175573
46:25:353002,4.458029479980469,1.2714559936523437,-0.14190490722656252,-0.0916030534351145,0.022900763358778626,0.45038167938931295
46:25:353087,3.826043701171875,0.925675048828125,-0.26734405517578125,0.007633587786259542,0.5267175572519084,0.9007633587786259
46:25:353245,2.5357269287109374,1.6073574829101562,0.10508148193359376,0.04580152671755725,0.8244274809160305,1.2748091603053435
46:25:492890,0.6364764404296875,2.9162356567382814,0.689765625,-0.10687022900763359,0.9007633587786259,1.6870229007633588
46:25:505188,-0.9951306152343751,3.35063232421875,0.8520281982421876,-0.3282442748091603,0.9541984732824427,1.8473282442748091
46:25:536870,-2.4743545532226565,3.360811157226563,0.8628057861328126,-0.5190839694656488,0.8473282442748091,1.580152671755725
46:25:580828,-3.01532958984375,1.9752923583984376,0.661025390625,-0.5419847328244275,0.7938931297709924,1.0610687022900762
46:25:629038,-3.0261071777343753,-0.27452911376953126,0.7131170654296876,-0.37404580152671757,0.4351145038167939,0.47328244274809156
46:25:673583,-1.4061758422851562,-1.8345849609375,0.985550537109375,-0.08396946564885496,-0.09923664122137404,-0.2213740458015267
46:25:763854,-0.7394622802734375,-1.2879217529296876,1.1298504638671876,0.2900763358778626,-0.46564885496183206,-0.8931297709923663
46:25:806154,-0.7595205688476563,0.6756948852539063,1.3190570068359375,0.21374045801526717,-0.7022900763358778,-1.381679389312977
46:25:806315,-0.47690826416015625,2.6887088012695313,1.934876403808594,0.21374045801526717,-0.7709923664122137,-1.5267175572519083
46:25:896950,0.6963519287109375,3.5976187133789064,2.4111859130859377,-0.46564885496183206,-0.5572519083969465,-1.083969465648855
46:25:989192,2.0016375732421876,3.936214599609375,2.5222549438476562,-0.9541984732824427,-0.366412213740458,-0.40458015267175573
46:26:116069,2.442021789550781,3.9242395019531253,2.17707275390625,-1.465648854961832,-0.35877862595419846,0.16030534351145037
46:26:116203,2.0076251220703125,2.3108944702148437,1.5513739013671877,-1.1221374045801527,-0.46564885496183206,0.5801526717557252
46:26:213263,1.324146423339844,0.9307644653320313,1.00830322265625,-0.7938931297709924,-0.37404580152671757,0.7480916030534351
46:26:213418,0.8229885864257813,0.32751892089843754,1.178349609375,-0.7099236641221374,-0.16030534351145037,0.5190839694656488
46:26:213525,0.5460644531250001,0.21195922851562501,2.0049307250976565,-0.7480916030534351,-0.2595419847328244,0.22900763358778625
46:26:353232,0.7137158203125,0.28740234375,2.7054739379882813,-0.4198473282442748,-0.1297709923664122,-0.007633587786259542
46:26:353402,0.6559359741210938,0.6825805664062501,2.9593460083007814,-0.2213740458015267,-0.26717557251908397,0.022900763358778626
46:26:388792,1.0337503051757813,0.6930587768554688,2.9871881103515627,0.08396946564885496,-0.022900763358778626,0.04580152671755725
46:26:388948,0.9819580078125001,0.805924072265625,2.9629385375976565,-0.11450381679389313,-0.06870229007633588,0.04580152671755725
46:26:437191,0.9310638427734376,0.6334826660156251,2.9452752685546875,-0.007633587786259542,0.015267175572519083,0.03816793893129771
46:26:481641,0.8113128662109376,0.6780899047851563,2.9033624267578126,-0.022900763358778626,0.0,0.030534351145038167
46:26:576820,0.7026388549804687,0.7505392456054688,2.874622192382813,-0.10687022900763359,0.030534351145038167,0.030534351145038167
46:26:706554,0.7493417358398438,0.46104125976562504,2.8515701293945312,-0.007633587786259542,-0.04580152671755725,0.007633587786259542
46:26:706748,0.85981201171875,0.4152365112304688,2.8366012573242188,-0.03816793893129771,-0.05343511450381679,-0.08396946564885496
46:26:748688,0.8882528686523438,0.41852966308593753,2.8339068603515627,-0.07633587786259542,-0.10687022900763359,-0.1297709923664122
46:26:841373,1.0532098388671876,0.417930908203125,2.831511840820313,-0.007633587786259542,-0.03816793893129771,-0.08396946564885496
46:26:841771,1.1942166137695314,0.34338592529296874,2.818339233398438,0.030534351145038167,-0.015267175572519083,-0.030534351145038167
46:26:929568,1.2816348266601563,0.24548950195312502,2.798580322265625,0.061068702290076333,0.007633587786259542,-0.030534351145038167
46:26:929779,1.2220587158203127,0.19579284667968752,2.788401489257813,-0.04580152671755725,-0.007633587786259542,-0.08396946564885496
46:27:022269,1.2097842407226562,0.19429595947265627,2.781515808105469,0.022900763358778626,-0.022900763358778626,-0.03816793893129771
46:27:066227,1.1909234619140625,0.30386810302734374,2.7698400878906253,0.0,0.007633587786259542,0.0
46:27:113113,1.2037966918945313,0.2817141723632813,2.7620562744140624,0.022900763358778626,-0.015267175572519083,0.061068702290076333
46:27:200874,1.217867431640625,0.1993853759765625,2.75187744140625,0.030534351145038167,0.0,0.08396946564885496
46:27:201064,1.2208612060546875,0.11256591796875001,2.7428961181640625,0.015267175572519083,0.007633587786259542,0.07633587786259542
46:27:316900,1.2558883666992189,0.04700225830078125,2.731220397949219,0.05343511450381679,0.04580152671755725,0.07633587786259542
46:27:341468,1.1346405029296875,0.0520916748046875,2.7177484130859377,0.0,0.007633587786259542,0.061068702290076333
46:27:341633,1.0517129516601562,0.045205993652343755,2.7126589965820314,0.03816793893129771,-0.022900763358778626,0.06870229007633588
46:27:376104,0.9298663330078125,0.11286529541015626,2.7042764282226566,0.0,-0.007633587786259542,0.015267175572519083
46:27:538540,0.7559280395507812,0.06346801757812501,2.70158203125,-0.030534351145038167,-0.05343511450381679,-0.05343511450381679
46:27:538677,0.5610333251953126,-0.137713623046875,2.694696350097656,0.06870229007633588,-0.022900763358778626,-0.17557251908396945
46:27:565070,0.3694317626953125,-0.3335064697265625,2.678529968261719,0.15267175572519084,0.015267175572519083,-0.366412213740458
46:27:617173,0.350870361328125,-0.686173095703125,2.6441015625,0.3282442748091603,0.1984732824427481,-0.6183206106870229
46:27:617297,0.3637435913085938,-0.8750802612304688,2.601889343261719,0.5190839694656488,0.3282442748091603,-0.8549618320610687
46:27:617382,0.42571472167968755,-0.93884765625,2.5725503540039063,0.4809160305343511,0.4580152671755725,-1.1908396946564885
46:27:789017,0.48978149414062505,-1.0472222900390626,2.4533981323242187,0.7404580152671756,0.5877862595419847,-1.2900763358778626
46:27:797829,0.7289840698242188,-0.7855664062500001,2.2141955566406253,0.9007633587786259,0.4961832061068702,-1.297709923664122
46:27:828968,1.7974621582031252,-0.036524047851562505,2.0740869140625002,0.8625954198473282,0.3511450381679389,-0.9465648854961831
46:27:829126,3.0635293579101566,0.6798861694335938,1.2885205078125002,1.0381679389312977,0.3511450381679389,-0.47328244274809156
46:27:876816,3.975433044433594,2.509681091308594,0.8131091308593751,-0.022900763358778626,0.732824427480916,-0.10687022900763359
46:27:922122,3.2683035278320314,2.9030630493164065,1.8776953125,0.648854961832061,0.8549618320610687,0.9923664122137404
46:28:007186,1.41545654296875,2.7812164306640628,2.611469421386719,0.3969465648854962,0.8625954198473282,1.5725190839694656
46:28:052932,-0.5676196289062501,2.8195367431640626,2.7809170532226566,-0.25190839694656486,0.8015267175572519,1.6106870229007633
46:28:053163,-1.7893789672851563,2.5213568115234377,2.143243103027344,-0.17557251908396945,0.7862595419847328,1.5419847328244274
46:28:149225,-2.854563903808594,2.129471740722656,1.294508056640625,-0.4809160305343511,1.0229007633587786,1.1526717557251909
46:28:193127,-3.2389645385742187,0.3170407104492188,0.7298822021484376,-0.7022900763358778,0.8015267175572519,0.7099236641221374
46:28:233090,-1.8061441040039063,-2.215093688964844,0.9520202636718751,-0.3282442748091603,0.34351145038167935,0.15267175572519084
46:28:365773,-0.7379653930664063,-3.0231134033203126,1.2355307006835938,0.3893129770992366,-0.23664122137404578,-0.3893129770992366
46:28:413060,-0.8155041503906251,-1.9294876098632814,1.0038125610351563,0.6030534351145038,-0.564885496183206,-1.0229007633587786
46:28:413199,-1.5600558471679689,0.026345214843750003,0.9951306152343751,0.5877862595419847,-0.7633587786259541,-1.450381679389313
46:28:413285,-1.7884808349609376,1.9908599853515625,1.2762460327148437,0.7175572519083969,-0.9312977099236641,-1.4427480916030533
46:28:462440,-0.9250762939453125,2.841391296386719,1.3864169311523438,0.46564885496183206,-0.9465648854961831,-1.4045801526717556
46:28:509256,0.5736071777343751,2.7309210205078127,1.3780343627929688,0.22900763358778625,-0.8549618320610687,-1.1526717557251909
46:28:641153,2.218985595703125,2.2779629516601565,1.1645782470703125,-0.06870229007633588,-0.6870229007633587,-0.8396946564885496
46:28:695163,3.5637890625,1.6723223876953126,0.9918374633789063,-0.07633587786259542,-0.3511450381679389,-0.3511450381679389
46:28:730352,4.144581298828125,1.4130615234375001,0.08562194824218751,-0.11450381679389313,-0.1297709923664122,0.2900763358778626
46:28:821118,4.000580749511719,1.1822415161132813,-0.7158114624023438,0.19083969465648853,0.732824427480916,0.8396946564885496
46:28:821256,2.4474105834960938,1.8639239501953127,0.15298187255859375,-0.04580152671755725,1.015267175572519,1.2213740458015268
46:28:913341,0.6265969848632813,2.8392956542968752,1.041534118652344,-0.32061068702290074,0.9618320610687022,1.5572519083969465
46:28:913489,-0.9621990966796875,3.2913555908203125,1.3406121826171875,-0.35877862595419846,0.8702290076335878,1.7251908396946565
46:28:952800,-1.9169137573242188,2.6036856079101565,1.350791015625,-0.6183206106870229,0.7709923664122137,1.3587786259541985
46:28:952940,-2.2806573486328126,1.8432669067382814,1.1430230712890626,-0.8625954198473282,0.6183206106870229,0.6793893129770993
46:29:060891,-2.8084597778320313,1.3810281372070312,1.0852432250976562,-0.8931297709923663,0.12213740458015267,0.41221374045801523
46:29:089059,-1.2403207397460938,-0.06496490478515625,0.6376739501953125,-0.09923664122137404,-0.0916030534351145,0.34351145038167935
46:29:140923,-0.14220428466796875,0.15118560791015626,1.0268646240234376,-0.20610687022900762,-0.16793893129770993,-0.19083969465648853
46:29:186755,1.1726614379882814,0.9202862548828126,2.084864501953125,-0.06870229007633588,-0.20610687022900762,-0.5954198473282443
46:29:225232,1.6845968627929688,3.2147149658203125,2.424957275390625,-0.8854961832061068,-0.29770992366412213,-0.6259541984732824
46:29:270497,2.3701712036132814,3.2224987792968753,2.5069866943359376,-1.0534351145038168,-0.22900763358778625,-0.3969465648854962
46:29:312948,2.3402334594726564,2.665057983398438,2.4968078613281253,-1.4274809160305344,-0.1450381679389313,-0.32061068702290074
46:29:362253,2.169588317871094,1.8705102539062501,2.1453387451171877,-1.282442748091603,-0.07633587786259542,-0.25190839694656486
46:29:413034,1.9082318115234376,1.1690689086914063,1.9297869873046876,-0.7709923664122137,-0.007633587786259542,-0.1984732824427481
46:29:536991,1.6184344482421875,0.9328601074218751,2.002236328125,-0.42748091603053434,-0.061068702290076333,-0.12213740458015267
46:29:589196,1.3980926513671876,0.5864804077148438,2.2737716674804687,-0.09923664122137404,-0.1450381679389313,0.0
46:29:589442,1.3235476684570313,0.35625915527343754,2.6300308227539064,0.0916030534351145,-0.08396946564885496,-0.04580152671755725
46:29:670744,1.1741583251953125,0.39667510986328125,2.831511840820313,-0.015267175572519083,-0.11450381679389313,-0.0916030534351145
46:29:721018,1.3148657226562501,0.310155029296875,2.8698321533203126,0.08396946564885496,-0.04580152671755725,-0.09923664122137404
46:29:813143,1.3430072021484376,0.5002597045898438,2.85486328125,-0.03816793893129771,0.007633587786259542,-0.05343511450381679
46:29:813308,1.2481045532226562,0.5053491210937501,2.847977600097656,-0.16030534351145037,0.04580152671755725,-0.022900763358778626
46:29:853667,1.1067984008789062,0.3607498168945313,2.824925537109375,0.030534351145038167,0.04580152671755725,0.05343511450381679
46:29:853798,1.02746337890625,0.40266265869140627,2.7934909057617188,-0.007633587786259542,0.061068702290076333,0.05343511450381679
46:29:946372,0.8699908447265625,0.3373983764648438,2.7692413330078125,-0.09923664122137404,0.04580152671755725,0.0
46:30:032384,0.829874267578125,0.2601589965820313,2.758463745117188,-0.06870229007633588,-0.007633587786259542,0.007633587786259542
46:30:177862,0.8631051635742188,0.16316070556640624,2.755170593261719,-0.04580152671755725,-0.06870229007633588,-0.030534351145038167
46:30:178035,0.9978250122070313,0.13861175537109377,2.7590625,0.0,-0.0916030534351145,-0.030534351145038167
46:30:221145,1.1038046264648438,0.142503662109375,2.7617568969726562,-0.007633587786259542,-0.06870229007633588,-0.015267175572519083
46:30:221330,1.2232562255859376,0.06586303710937501,2.7596612548828126,0.030534351145038167,-0.007633587786259542,0.0
46:30:221478,1.3061837768554687,0.03323089599609375,2.74708740234375,0.03816793893129771,0.030534351145038167,0.015267175572519083
46:30:262596,1.3175601196289064,-0.03263214111328125,2.736010437011719,0.03816793893129771,0.015267175572519083,0.0
46:30:308983,1.3100756835937502,-0.015867004394531252,2.72792724609375,0.03816793893129771,0.015267175572519083,-0.04580152671755725
46:30:445157,1.19990478515625,0.10029144287109376,2.7210415649414066,0.007633587786259542,-0.007633587786259542,-0.03816793893129771
46:30:493049,1.1936178588867188,0.12274475097656251,2.71834716796875,0.05343511450381679,-0.030534351145038167,0.015267175572519083
46:30:529063,1.2292437744140625,0.14130615234375002,2.714455261230469,0.007633587786259542,0.0,0.015267175572519083
46:30:581362,1.2612771606445312,0.040415954589843754,2.7093658447265625,0.03816793893129771,0.015267175572519083,0.04580152671755725
46:30:581540,1.2978012084960937,-0.044008483886718755,2.7027795410156252,0.030534351145038167,0.030534351145038167,0.0
46:30:629199,1.2531939697265626,-0.0425115966796875,2.6970913696289065,0.015267175572519083,0.0,-0.007633587786259542
46:30:757441,1.244212646484375,-0.05718109130859375,2.69439697265625,0.03816793893129771,0.007633587786259542,-0.022900763358778626
46:30:773057,1.10410400390625,-0.018860778808593753,2.6869125366210938,-0.11450381679389313,0.05343511450381679,-0.07633587786259542
46:30:773210,0.8505313110351563,-0.24578887939453126,2.6764343261718753,-0.183206106870229,0.03816793893129771,-0.15267175572519084
46:30:849210,0.7768844604492188,-0.4328997802734375,2.6671536254882815,0.030534351145038167,0.05343511450381679,-0.20610687022900762
46:30:981032,0.688568115234375,-0.40894958496093753,2.644999694824219,0.030534351145038167,0.11450381679389313,-0.37404580152671757
46:31:029320,0.5816903686523438,-0.5110372924804688,2.5860223388671875,-0.04580152671755725,0.25190839694656486,-0.6030534351145038
46:31:029516,0.4697232055664063,-0.5813909912109375,2.5030947875976564,-0.08396946564885496,0.38167938931297707,-0.7709923664122137
46:31:029676,0.613125,-0.8472381591796876,2.484832763671875,0.183206106870229,0.5343511450381679,-0.8473282442748091
46:31:073734,0.602347412109375,-0.996328125,2.236648864746094,0.4198473282442748,0.6183206106870229,-0.9847328244274809
46:31:117216,0.9511221313476563,-0.9247769165039063,1.8866766357421876,0.5877862595419847,0.6641221374045801,-1.129770992366412
46:31:161247,1.6244219970703127,-0.7355703735351563,1.4926959228515626,1.0534351145038168,0.5419847328244275,-0.8778625954198473
46:31:209008,2.7210415649414066,0.199984130859375,0.9175918579101563,1.5572519083969465,0.7022900763358778,-0.648854961832061
46:31:341077,3.413501586914063,1.55915771484375,1.9806811523437502,0.6793893129770993,0.7557251908396946,-0.3129770992366412
46:31:392799,3.0482611083984374,2.682421875,2.9261151123046876,0.8091603053435115,1.015267175572519,0.46564885496183206
46:31:393003,1.7238153076171876,2.8755203247070313,3.330274658203125,0.2748091603053435,0.7633587786259541,1.099236641221374
46:31:429027,-0.1993853759765625,2.8692333984375002,3.2036380004882816,-0.1450381679389313,0.8015267175572519,1.4961832061068703
46:31:529076,-2.1836590576171875,2.5126748657226563,2.7656488037109375,-0.7480916030534351,0.7862595419847328,1.4274809160305344
46:31:616892,-3.1566357421875,1.1433224487304687,1.948049011230469,-0.7938931297709924,0.6183206106870229,1.2519083969465647
46:31:617085,-3.065325622558594,-0.0089813232421875,1.0888357543945313,-0.9694656488549618,0.38167938931297707,0.8625954198473282
46:31:656831,-1.919608154296875,-1.7920733642578126,0.4858895874023438,-0.7404580152671756,-0.21374045801526717,0.3969465648854962
46:31:702169,-0.5445675659179687,-2.668650512695313,0.44038421630859376,0.282442748091603,-0.2213740458015267,-0.030534351145038167
46:31:792954,-0.149688720703125,-2.4632775878906252,0.5751040649414063,0.6183206106870229,-0.23664122137404578,-0.7557251908396946
46:31:793099,-0.74006103515625,-0.8972341918945312,1.0406359863281252,0.4427480916030534,-0.42748091603053434,-1.3129770992366412
46:31:885630,-0.9726773071289063,0.887354736328125,1.6435821533203125,0.5419847328244275,-0.2748091603053435,-1.5267175572519083
46:31:929165,-0.662222900390625,2.327958984375,2.3833438110351564,0.0,-0.3511450381679389,-1.580152671755725
46:31:970404,0.06376739501953126,2.049537963867188,2.7321185302734374,0.16793893129770993,-0.3129770992366412,-1.3893129770992365
46:32:019006,1.2579840087890626,1.7339941406250001,2.096240844726563,0.32061068702290074,-0.45038167938931295,-1.0076335877862594
46:32:019304,3.007545776367188,1.529219970703125,1.112486572265625,-0.007633587786259542,-0.030534351145038167,-0.732824427480916
46:32:064904,3.975433044433594,1.9974462890625,0.9014254760742187,0.07633587786259542,0.32061068702290074,-0.12213740458015267
46:32:156914,3.558699645996094,2.319576416015625,1.6947756958007814,0.1450381679389313,0.3129770992366412,0.4961832061068702
46:32:241042,2.4315435791015627,2.5902136230468753,2.246228942871094,0.09923664122137404,0.22900763358778625,1.0610687022900762
46:32:286361,0.7415579223632813,2.975512390136719,2.5126748657226563,-0.12213740458015267,0.16793893129770993,1.4732824427480915
46:32:286546,-1.0211764526367189,3.330873413085938,2.31837890625,-0.3129770992366412,0.32061068702290074,1.748091603053435
46:32:328775,-2.365381164550781,3.0946646118164063,1.7115408325195314,-0.5343511450381679,0.41221374045801523,1.7633587786259541
46:32:381074,-3.1952554321289064,2.1932391357421874,1.0454260253906251,-0.6412213740458015,0.5114503816793893,1.5419847328244274
46:32:468873,-3.158731384277344,0.4314028930664063,0.7125183105468751,-0.6335877862595419,0.29770992366412213,1.0687022900763359
46:32:509366,-2.036365356445313,-1.4169534301757813,0.6083349609375001,-0.35877862595419846,0.13740458015267176,0.42748091603053434
46:32:509542,-0.829874267578125,-1.836680603027344,1.081351318359375,0.06870229007633588,-0.03816793893129771,-0.3053435114503817
46:32:557326,-0.1754351806640625,-0.25387207031250003,1.8675164794921877,0.08396946564885496,-0.06870229007633588,-0.9389312977099237
46:32:649051,0.5206173706054688,2.11001220703125,2.3593936157226563,-0.0916030534351145,-0.23664122137404578,-1.0
46:32:689047,1.7372872924804688,3.9113662719726565,2.4806414794921876,-0.7557251908396946,-0.2595419847328244,-0.6870229007633587
46:32:732832,2.0974383544921875,3.566782836914063,2.5051904296875,-1.16793893129771,-0.34351145038167935,-0.282442748091603
46:32:781208,1.9869680786132813,2.3860382080078124,2.5471032714843753,-1.0,-0.366412213740458,-0.015267175572519083
46:32:823133,1.6756155395507812,1.7283059692382814,2.2962249755859374,-0.9465648854961831,-0.22900763358778625,-0.015267175572519083
46:32:916873,1.1702664184570313,1.2373269653320313,2.361189880371094,-0.7022900763358778,-0.35877862595419846,-0.015267175572519083
46:32:961256,1.0921289062500001,0.8972341918945312,2.185754699707031,-0.38167938931297707,-0.3129770992366412,0.015267175572519083
46:33:009082,1.1618838500976563,0.765208740234375,2.3519091796875,-0.40458015267175573,-0.16030534351145037,-0.030534351145038167
46:33:189208,1.0819500732421876,0.25656646728515625,2.757565612792969,-0.05343511450381679,-0.16030534351145037,0.022900763358778626
46:33:189411,1.2585827636718752,0.26315277099609374,2.9192294311523437,-0.03816793893129771,-0.07633587786259542,-0.007633587786259542
46:33:237088,1.294508056640625,0.3158432006835938,2.9461734008789064,-0.05343511450381679,-0.007633587786259542,0.03816793893129771
46:33:237302,1.1930191040039062,0.36673736572265625,2.9306057739257816,-0.06870229007633588,0.015267175572519083,0.08396946564885496
46:33:237437,1.084644470214844,0.2751278686523438,2.911146240234375,-0.1450381679389313,0.11450381679389313,0.030534351145038167
46:33:284914,0.901724853515625,0.1898052978515625,2.8770172119140627,0.0,0.022900763358778626,0.0916030534351145
46:33:324823,0.8559201049804688,0.23022125244140626,2.8533663940429688,-0.13740458015267176,0.03816793893129771,0.04580152671755725
46:33:406820,0.9220825195312501,0.106578369140625,2.8455825805664063,-0.030534351145038167,-0.05343511450381679,0.022900763358778626
46:33:548818,1.0089019775390626,0.173638916015625,2.835403747558594,-0.015267175572519083,-0.04580152671755725,0.007633587786259542
46:33:548957,0.9580078125,0.09580078125000001,2.8327093505859375,-0.007633587786259542,-0.1297709923664122,0.0
46:33:591345,0.9903405761718751,0.128133544921875,2.8327093505859375,-0.007633587786259542,-0.08396946564885496,0.015267175572519083
46:33:633241,1.0445278930664064,0.045205993652343755,2.8327093505859375,-0.061068702290076333,-0.05343511450381679,0.0
46:33:633399,1.2367282104492188,-0.1407073974609375,2.8252249145507813,0.06870229007633588,-0.015267175572519083,0.007633587786259542
46:33:725072,1.362466735839844,-0.0987945556640625,2.8111541748046878,0.022900763358778626,0.0,-0.022900763358778626
46:33:812908,1.3418096923828127,-0.061372375488281256,2.805166625976563,-0.05343511450381679,0.0,-0.061068702290076333
46:33:813163,1.2750485229492188,-0.03622467041015625,2.797083435058594,0.030534351145038167,-0.030534351145038167,0.0
46:33:862606,1.310973815917969,0.04580474853515625,2.7904971313476565,0.0,-0.015267175572519083,0.030534351145038167
46:33:908941,1.3130694580078126,-0.02005828857421875,2.7833120727539065,0.0,0.0,0.05343511450381679
46:33:948989,1.316063232421875,-0.116158447265625,2.775528259277344,0.030534351145038167,-0.007633587786259542,0.05343511450381679
46:34:136507,1.349593505859375,-0.149688720703125,2.7668463134765626,0.06870229007633588,0.007633587786259542,0.04580152671755725
46:34:136639,1.277742919921875,-0.11076965332031251,2.750380554199219,0.007633587786259542,0.061068702290076333,0.022900763358778626
46:34:189099,1.1133847045898437,-0.1742376708984375,2.733914794921875,-0.007633587786259542,0.05343511450381679,0.015267175572519083
46:34:189241,0.8412506103515626,-0.279019775390625,2.7168502807617188,0.007633587786259542,0.03816793893129771,-0.03816793893129771
46:34:189344,0.6218069458007813,-0.3864962768554688,2.6973907470703127,0.09923664122137404,0.030534351145038167,-0.11450381679389313
46:34:266135,0.4763095092773438,-0.5921685791015625,2.4899221801757814,0.2900763358778626,0.16030534351145037,-0.2900763358778626
46:34:353566,0.4125421142578125,-0.9403445434570313,2.322270812988281,0.4198473282442748,0.366412213740458,-0.5725190839694656
46:34:353752,0.3200344848632813,-1.0828482055664064,2.0510348510742187,0.366412213740458,0.5801526717557252,-0.9465648854961831
46:34:460884,0.4113446044921875,-1.3415103149414063,1.914818115234375,0.5114503816793893,0.9312977099236641,-1.1755725190839694
46:34:461086,0.42032592773437505,-1.4412030029296876,1.9088305664062502,0.7709923664122137,1.015267175572519,-1.3893129770992365
46:34:489714,0.942440185546875,-0.769998779296875,2.0004400634765624,0.9541984732824427,1.099236641221374,-1.381679389312977
46:34:534539,1.783092041015625,0.417930908203125,2.2528152465820312,1.045801526717557,0.8015267175572519,-0.9923664122137404
46:34:582455,2.697690124511719,1.5645465087890627,2.4483087158203127,0.9770992366412213,0.6259541984732824,-0.6335877862595419
46:34:626295,2.7027795410156252,3.0329928588867188,2.648592224121094,0.5190839694656488,0.2213740458015267,0.16030534351145037
46:34:761053,2.455793151855469,3.113226013183594,2.266885986328125,0.5954198473282443,0.46564885496183206,0.8396946564885496
46:34:804880,1.1523037719726563,2.9473709106445316,2.0680993652343753,-0.10687022900763359,0.7099236641221374,1.3206106870229006
46:34:805094,-0.7682025146484376,2.528541870117188,2.11001220703125,-0.6335877862595419,0.9770992366412213,1.4961832061068703
46:34:805198,-2.442620544433594,1.4367123413085938,2.185754699707031,-0.7938931297709924,0.732824427480916,1.4809160305343512
46:34:853371,-3.006947021484375,0.3823049926757813,1.5031741333007813,-0.7557251908396946,0.5419847328244275,1.2595419847328244
46:34:989373,-2.963537292480469,-0.722098388671875,0.9211843872070313,-0.6564885496183206,0.34351145038167935,0.9236641221374046
46:35:032852,-2.1330642700195312,-2.3243664550781253,0.7122189331054688,-0.33587786259541985,-0.061068702290076333,0.41221374045801523
46:35:033065,-0.9774673461914063,-2.7078689575195316,0.849034423828125,0.3893129770992366,-0.19083969465648853,-0.022900763358778626
46:35:072824,-0.5703140258789062,-1.2469070434570313,1.3633648681640627,0.4198473282442748,-0.4427480916030534,-0.5038167938931297
46:35:125048,-0.30895751953125,-0.09550140380859376,1.7345928955078125,0.46564885496183206,-0.5419847328244275,-0.9694656488549618
46:35:167031,-0.1442999267578125,0.7454498291015625,1.6148419189453125,0.5343511450381679,-0.6793893129770993,-1.1755725190839694
46:35:212907,0.3430865478515625,1.13284423828125,1.3947994995117188,0.16030534351145037,-0.5725190839694656,-1.4122137404580153
46:35:301287,1.21427490234375,0.8065228271484376,1.242715759277344,0.16030534351145037,-0.42748091603053434,-1.3587786259541985
46:35:437102,2.1911434936523437,0.5376818847656251,1.2280462646484376,0.3053435114503817,-0.15267175572519084,-1.1755725190839694
46:35:482229,2.963537292480469,0.7457492065429688,1.4914984130859377,0.29770992366412213,-0.08396946564885496,-0.8015267175572519
46:35:482384,3.0482611083984374,1.692081298828125,1.4061758422851562,0.07633587786259542,0.07633587786259542,-0.3893129770992366
46:35:482492,2.7961853027343753,3.01053955078125,1.2073892211914063,-0.37404580152671757,0.21374045801526717,0.23664122137404578
46:35:525959,1.683399353027344,3.1859747314453126,1.3513897705078126,0.03816793893129771,0.41221374045801523,1.1755725190839694
46:35:616507,0.3242257690429688,2.8093579101562502,1.1621832275390627,-0.4351145038167939,0.5267175572519084,1.450381679389313
46:35:753610,-1.2660671997070314,2.7000851440429687,0.9690847778320313,-0.6641221374045801,0.549618320610687,1.6564885496183206
46:35:753768,-2.556383972167969,2.3546035766601565,0.5391787719726563,-0.9312977099236641,0.7480916030534351,1.5190839694656488
46:35:803912,-3.7152740478515627,1.178349609375,0.9095086669921876,-1.129770992366412,0.47328244274809156,1.1068702290076335
46:35:804064,-3.2515383911132814,-0.3311114501953125,0.8436456298828126,-0.564885496183206,-0.1984732824427481,0.8549618320610687
46:35:836099,-1.7154327392578126,-0.7490423583984376,0.6532415771484376,-0.06870229007633588,-0.24427480916030533,0.45038167938931295
46:35:889246,-0.0413140869140625,-0.3933819580078125,1.1933184814453126,-0.16030534351145037,-0.23664122137404578,-0.12213740458015267
46:35:977117,1.363963623046875,0.9870474243164064,2.158810729980469,-0.4198473282442748,-0.1450381679389313,-0.6717557251908397
46:36:113294,2.1282742309570315,2.8027716064453125,2.4192691040039063,-0.7786259541984732,-0.32061068702290074,-0.549618320610687
46:36:113466,2.2827529907226562,2.842588806152344,2.5042922973632815,-1.0381679389312977,-0.3053435114503817,-0.1984732824427481
46:36:150917,2.0591180419921877,2.1414468383789065,2.4168740844726564,-1.1526717557251909,-0.3053435114503817,-0.030534351145038167
46:36:202339,1.8187179565429688,1.2385244750976563,2.3438259887695314,-0.8702290076335878,-0.3282442748091603,0.007633587786259542
46:36:202523,1.6732205200195314,0.8131091308593751,2.2950274658203127,-0.5725190839694656,-0.183206106870229,-0.03816793893129771
46:36:202632,1.3894107055664062,0.7556286621093751,2.4704626464843753,-0.4427480916030534,-0.16030534351145037,-0.06870229007633588
46:36:292823,1.2304412841796875,0.7170089721679688,2.6779312133789066,-0.32061068702290074,-0.16030534351145037,-0.07633587786259542
46:36:468849,1.1897259521484376,0.7277865600585938,2.9054580688476563,-0.20610687022900762,-0.030534351145038167,-0.0916030534351145
46:36:605181,1.2654684448242188,0.49576904296875,2.968626708984375,0.030534351145038167,-0.04580152671755725,-0.03816793893129771
46:36:653445,1.3352233886718752,0.607137451171875,2.9333001708984376,0.0,0.1297709923664122,-0.007633587786259542
46:36:781783,1.3079800415039062,0.49786468505859377,2.8931835937500003,0.0,0.061068702290076333,0.05343511450381679
46:36:781944,1.2403207397460938,0.5334906005859376,2.857857055664063,-0.06870229007633588,0.11450381679389313,0.015267175572519083
46:36:787776,1.0103988647460938,0.45026367187500005,2.832110595703125,-0.07633587786259542,0.022900763358778626,0.030534351145038167
46:36:787885,0.9430389404296875,0.38889129638671877,2.810256042480469,-0.05343511450381679,0.061068702290076333,0.030534351145038167
46:36:788038,0.8523275756835937,0.35595977783203125,2.7898983764648437,-0.12213740458015267,0.015267175572519083,-0.007633587786259542
46:36:833077,0.9110055541992188,0.2613565063476563,2.7857070922851563,-0.07633587786259542,-0.022900763358778626,-0.061068702290076333
46:36:876971,0.9053173828125001,0.3008743286132813,2.783910827636719,-0.09923664122137404,-0.07633587786259542,-0.07633587786259542
46:36:929201,1.0127938842773438,0.2625540161132813,2.7863058471679687,-0.030534351145038167,-0.061068702290076333,-0.04580152671755725
46:36:929352,1.0771600341796876,0.1550775146484375,2.7800189208984376,-0.022900763358778626,-0.015267175572519083,-0.05343511450381679
46:37:007417,1.1549981689453126,0.0209564208984375,2.7728338623046875,0.007633587786259542,-0.022900763358778626,-0.06870229007633588
46:37:007625,1.3010943603515626,-0.051492919921875005,2.7620562744140624,0.06870229007633588,0.022900763358778626,-0.07633587786259542
46:37:096228,1.3831237792968751,0.016465759277343752,2.7494824218750002,0.04580152671755725,-0.007633587786259542,-0.06870229007633588
46:37:188784,1.4229409790039063,-0.014070739746093752,2.745590515136719,0.04580152671755725,-0.015267175572519083,-0.061068702290076333
46:37:188959,1.4079721069335938,0.0197589111328125,2.7425967407226564,0.05343511450381679,-0.030534351145038167,0.0
46:37:189063,1.313668212890625,0.0556842041015625,2.7378067016601566,0.007633587786259542,0.007633587786259542,0.030534351145038167
46:37:237074,1.2157717895507814,-0.012274475097656251,2.731519775390625,-0.007633587786259542,0.015267175572519083,0.030534351145038167
46:37:321561,1.2169692993164063,-0.08232879638671875,2.7231372070312503,0.05343511450381679,0.015267175572519083,0.03816793893129771
46:37:457172,1.4181509399414063,-0.13861175537109377,2.715652770996094,0.17557251908396945,0.007633587786259542,0.0916030534351145
46:37:457363,1.3744418334960937,-0.067060546875,2.7096652221679687,0.061068702290076333,-0.015267175572519083,0.03816793893129771
46:37:517288,1.150806884765625,-0.0413140869140625,2.707569580078125,0.03816793893129771,-0.015267175572519083,0.030534351145038167
46:37:546221,0.9720785522460939,-0.04879852294921875,2.70158203125,0.022900763358778626,0.0,0.015267175572519083
46:37:590973,0.8014334106445313,-0.055384826660156254,2.6914031982421878,-0.0916030534351145,0.022900763358778626,-0.061068702290076333
46:37:591185,0.652642822265625,-0.25836273193359377,2.6842181396484377,-0.03816793893129771,-0.022900763358778626,-0.1450381679389313
46:37:777004,0.6218069458007813,-0.37242553710937504,2.680924987792969,0.03816793893129771,-0.030534351145038167,-0.2900763358778626
46:37:821209,0.62989013671875,-0.28770172119140625,2.6662554931640625,0.10687022900763359,0.04580152671755725,-0.4351145038167939
46:37:821347,0.671802978515625,-0.4209246826171875,2.6488916015625,0.33587786259541985,0.061068702290076333,-0.4961832061068702
46:37:866650,0.8146060180664063,-0.87897216796875,2.634521484375,0.6183206106870229,0.12213740458015267,-0.6717557251908397
46:37:909643,0.7771838378906251,-1.2472064208984375,2.3201751708984375,0.20610687022900762,0.1984732824427481,-1.213740458015267
46:37:956964,0.72090087890625,-1.6845968627929688,1.6795074462890627,0.4351145038167939,0.4809160305343511,-1.4351145038167938
46:37:957147,0.9181906127929688,-1.5570620727539064,1.0343490600585938,1.1832061068702289,0.8015267175572519,-1.3511450381679388
46:37:995937,1.708547058105469,-1.0612930297851564,0.8062234497070313,1.6335877862595418,0.7633587786259541,-1.0305343511450382
46:38:088893,2.6237438964843753,1.208287353515625,0.9927355957031251,1.282442748091603,1.0076335877862594,-0.8549618320610687
46:38:089126,3.215014343261719,2.70158203125,1.7929714965820314,-0.35877862595419846,1.2366412213740459,-0.549618320610687
46:38:136859,1.8609301757812502,2.8467800903320315,3.386856994628906,0.7862595419847328,0.6335877862595419,1.2290076335877862
46:38:184833,0.6771917724609375,2.661764831542969,2.7057733154296875,0.10687022900763359,0.5801526717557252,1.4274809160305344
46:38:229727,-1.2160711669921875,2.6638604736328126,1.8773959350585938,-0.8091603053435115,0.9236641221374046,1.2290076335877862
46:38:320051,-3.0159283447265626,1.9603234863281251,1.409169616699219,-0.8091603053435115,0.9236641221374046,1.2900763358778626
46:38:450262,-3.19974609375,0.2496807861328125,1.0582992553710937,-0.8625954198473282,0.8015267175572519,1.0610687022900762
46:38:450395,-2.252515869140625,-1.4917977905273438,0.9083111572265625,-0.6030534351145038,0.37404580152671757,0.7480916030534351
46:38:497103,-0.8352630615234375,-2.6420059204101562,1.0328521728515625,-0.183206106870229,0.12213740458015267,0.24427480916030533
46:38:540858,-0.26075775146484376,-2.5638684082031253,1.4130615234375001,0.04580152671755725,-0.38167938931297707,-0.3511450381679389
46:38:586434,-0.27273284912109375,-0.9128018188476563,1.3451028442382813,0.11450381679389313,-0.5725190839694656,-0.8244274809160305
46:38:586609,-0.3526666259765625,0.4816983032226563,1.6360977172851563,0.29770992366412213,-0.564885496183206,-1.1526717557251909
46:38:677313,-0.19369720458984377,1.0199789428710937,1.7238153076171876,0.5114503816793893,-0.5725190839694656,-1.3206106870229006
46:38:774071,0.3757186889648438,1.1879296875,1.6196319580078127,0.26717557251908397,-0.5114503816793893,-1.4961832061068703
46:38:774323,1.3349240112304688,1.0175839233398438,1.474134521484375,0.26717557251908397,-0.38167938931297707,-1.3587786259541985
46:38:812890,2.548600158691406,0.8547225952148438,1.1421249389648438,0.2213740458015267,-0.15267175572519084,-1.083969465648855
46:38:861214,3.476670227050781,1.7489630126953126,1.129251708984375,-0.05343511450381679,0.21374045801526717,-0.7175572519083969
46:38:902148,3.656895446777344,2.468067626953125,1.4528787231445313,0.11450381679389313,0.23664122137404578,0.09923664122137404
46:38:902274,2.7860064697265625,3.0338909912109377,1.60705810546875,-0.1297709923664122,0.33587786259541985,0.7786259541984732
46:38:989053,1.2762460327148437,3.1129266357421876,1.5869998168945314,-0.3893129770992366,0.35877862595419846,1.2595419847328244
46:39:036927,-0.6780899047851563,3.191363525390625,1.5426919555664063,-0.5190839694656488,0.4427480916030534,1.6106870229007633
46:39:081325,-2.1776715087890626,2.7390042114257813,1.2448114013671876,-0.6259541984732824,0.40458015267175573,1.7022900763358777
46:39:128150,-2.8767178344726565,1.7390835571289063,0.887354736328125,-0.8473282442748091,0.4427480916030534,1.3740458015267174
46:39:174519,-2.93389892578125,0.05059478759765625,0.8319699096679688,-0.48854961832061067,0.11450381679389313,1.0
46:39:213063,-1.9944525146484375,-1.2822335815429688,0.5248086547851563,-0.13740458015267176,0.015267175572519083,0.5190839694656488
46:39:262092,-0.7179071044921875,-1.9112255859375,0.743653564453125,-0.1297709923664122,-0.061068702290076333,-0.32061068702290074
46:39:346734,-0.3442840576171875,-1.6830999755859375,0.9936337280273438,0.24427480916030533,-0.08396946564885496,-1.0687022900763359
46:39:484893,-0.8939410400390625,-0.1395098876953125,1.6387921142578126,0.2900763358778626,-0.26717557251908397,-1.5954198473282442
46:39:533194,-1.0771600341796876,1.973196716308594,2.2647903442382815,0.648854961832061,-0.3893129770992366,-1.5114503816793892
46:39:581048,-0.3155438232421875,3.3518298339843753,2.638413391113281,0.282442748091603,-0.5877862595419847,-1.114503816793893
46:39:621084,0.9897418212890625,3.592529296875,2.7524761962890625,0.022900763358778626,-0.4809160305343511,-0.3969465648854962
46:39:676716,1.7456698608398438,3.7074902343750002,2.4228616333007813,-0.732824427480916,-0.34351145038167935,0.1450381679389313
46:39:676904,1.5277230834960938,2.9653335571289063,2.1378543090820314,-0.9618320610687022,-0.40458015267175573,0.564885496183206
46:39:801077,0.9526190185546876,1.8711090087890625,1.4424005126953126,-0.8778625954198473,-0.5572519083969465,1.0229007633587786
46:39:801250,0.5182223510742188,0.7990383911132813,1.0403366088867188,-0.7557251908396946,-0.45038167938931295,1.1221374045801527
46:39:808084,0.4236190795898438,0.14759307861328125,1.227447509765625,-0.7404580152671756,-0.20610687022900762,0.916030534351145
46:39:888872,0.52929931640625,0.02185455322265625,1.9001486206054687,-0.732824427480916,-0.015267175572519083,0.48854961832061067
46:39:889012,0.6463558959960938,0.132923583984375,2.664459228515625,-0.5038167938931297,-0.15267175572519084,0.23664122137404578
46:39:930833,0.76880126953125,0.5748046875,2.89557861328125,-0.23664122137404578,-0.07633587786259542,0.12213740458015267
46:40:028967,0.7801776123046875,0.9580078125,2.937491455078125,-0.22900763358778625,-0.04580152671755725,0.09923664122137404
46:40:072948,0.8810678100585938,0.8966354370117188,2.9356951904296875,-0.12213740458015267,0.015267175572519083,0.0916030534351145
46:40:073248,0.849034423828125,0.9493258666992188,2.91473876953125,-0.21374045801526717,0.04580152671755725,0.061068702290076333
46:40:252988,0.8056246948242188,0.8110134887695313,2.90515869140625,-0.2213740458015267,0.03816793893129771,0.015267175572519083
46:40:296783,0.8131091308593751,0.6936575317382813,2.9066555786132815,-0.21374045801526717,-0.04580152671755725,-0.03816793893129771
46:40:345423,0.93645263671875,0.5637277221679687,2.9090505981445314,-0.11450381679389313,-0.0916030534351145,-0.07633587786259542
46:40:345636,0.96998291015625,0.5224136352539063,2.908451843261719,-0.12213740458015267,-0.0916030534351145,-0.1297709923664122
46:40:476945,1.0071057128906251,0.5044509887695313,2.9063562011718753,-0.11450381679389313,-0.03816793893129771,-0.1450381679389313
46:40:477112,1.043031005859375,0.4355941772460938,2.8886929321289063,-0.07633587786259542,0.04580152671755725,-0.12213740458015267
46:40:576928,1.119671630859375,0.2293231201171875,2.8629464721679687,-0.03816793893129771,0.061068702290076333,-0.1297709923664122
46:40:577122,1.2445120239257814,0.1383123779296875,2.834206237792969,0.015267175572519083,0.05343511450381679,-0.1297709923664122
46:40:577244,1.3079800415039062,0.1550775146484375,2.8123516845703125,-0.030534351145038167,0.03816793893129771,-0.1450381679389313
46:40:614007,1.2663665771484376,0.19070343017578126,2.7988796997070313,-0.04580152671755725,0.007633587786259542,-0.11450381679389313
46:40:661001,1.2783416748046876,0.16795074462890625,2.78540771484375,0.06870229007633588,-0.007633587786259542,0.022900763358778626
46:40:852681,1.3537847900390625,0.17244140625,2.767145690917969,0.0,0.03816793893129771,0.05343511450381679
46:40:852814,1.2915142822265626,0.077838134765625,2.757864990234375,-0.09923664122137404,0.030534351145038167,0.061068702290076333
46:40:977162,1.184337158203125,-0.06586303710937501,2.750380554199219,0.007633587786259542,0.030534351145038167,0.07633587786259542
46:40:977289,1.1070977783203126,-0.057779846191406255,2.7363098144531253,0.04580152671755725,-0.007633587786259542,0.0916030534351145
46:40:977374,1.086141357421875,-0.0305364990234375,2.7237359619140626,0.03816793893129771,0.015267175572519083,0.07633587786259542
46:41:013542,0.9957293701171875,-0.06586303710937501,2.711162109375,0.03816793893129771,0.0,0.08396946564885496
46:41:013727,0.8684939575195313,-0.10388397216796875,2.7021807861328124,-0.03816793893129771,-0.007633587786259542,0.022900763358778626
46:41:145699,0.7990383911132813,-0.1167572021484375,2.6970913696289065,-0.030534351145038167,-0.007633587786259542,-0.022900763358778626
46:41:145947,0.6634204101562501,-0.15537689208984376,2.6937982177734376,-0.015267175572519083,-0.04580152671755725,-0.10687022900763359
46:41:201138,0.6427633666992187,-0.18950592041015626,2.685415649414063,0.03816793893129771,0.007633587786259542,-0.1984732824427481
46:41:201308,0.5966592407226563,-0.3469784545898438,2.662962341308594,0.06870229007633588,0.12213740458015267,-0.33587786259541985
46:41:292892,0.6005511474609375,-0.6499484252929688,2.6201513671875003,0.16030534351145037,0.29770992366412213,-0.48854961832061067
46:41:293096,0.69695068359375,-0.9726773071289063,2.4932153320312502,0.21374045801526717,0.4961832061068702,-0.732824427480916
46:41:332877,0.7119195556640625,-1.2133767700195313,2.30161376953125,0.23664122137404578,0.7022900763358778,-1.0305343511450382
46:41:372880,0.6849755859375001,-1.5612533569335938,2.039359130859375,0.7251908396946565,0.7862595419847328,-1.1221374045801527
46:41:473032,0.8451425170898438,-1.387614440917969,1.3953982543945314,1.1603053435114503,0.8015267175572519,-1.16793893129771
46:41:516922,1.3873150634765625,-0.5840853881835938,1.3043875122070314,1.3053435114503815,0.7099236641221374,-0.9541984732824427
46:41:517066,2.343227233886719,0.24159759521484375,1.28133544921875,1.6412213740458015,0.5801526717557252,-0.6183206106870229
46:41:552869,3.0985565185546875,2.165995788574219,1.5169454956054689,1.16793893129771,0.8396946564885496,-0.2595419847328244
46:41:600952,3.306923217773438,2.6036856079101565,1.6049624633789064,1.3282442748091603,0.7251908396946565,0.6641221374045801
46:41:694307,2.5033941650390625,2.5560845947265625,1.1969110107421876,0.2213740458015267,1.0687022900763359,0.9770992366412213
46:41:731107,0.2616558837890625,2.5246499633789066,1.10410400390625,-0.08396946564885496,1.3893129770992365,1.4961832061068703
46:41:829205,-2.379152526855469,2.5809329223632815,1.2684622192382813,-0.6717557251908397,1.5114503816793892,1.3740458015267174
46:41:913123,-3.644022216796875,1.3645623779296876,0.929267578125,-0.8244274809160305,1.1908396946564885,1.114503816793893
46:41:913267,-3.500021667480469,-1.282532958984375,0.980760498046875,-0.1984732824427481,0.8625954198473282,0.7633587786259541
46:41:980962,-2.485132141113281,-3.191363525390625,1.3666580200195313,0.15267175572519084,0.20610687022900762,0.366412213740458
46:42:004941,-1.5115567016601563,-3.160228271484375,1.5747253417968752,0.3511450381679389,-0.282442748091603,-0.19083969465648853
46:42:053229,-1.1960128784179689,-1.49688720703125,1.34360595703125,0.25190839694656486,-0.7480916030534351,-0.5877862595419847
46:42:091210,-1.081351318359375,-0.022752685546875002,1.0259664916992188,0.35877862595419846,-0.9389312977099237,-0.8625954198473282
46:42:187931,-0.89334228515625,1.1475137329101563,0.741258544921875,0.2213740458015267,-1.0687022900763359,-1.083969465648855
46:42:277141,-0.17753082275390625,1.8579364013671875,0.7619155883789063,-0.183206106870229,-0.9694656488549618,-1.4122137404580153
46:42:277283,0.9113049316406251,2.155218200683594,0.8517288208007813,-0.10687022900763359,-0.6717557251908397,-1.297709923664122
46:42:322511,2.251318359375,1.7645306396484375,1.0936257934570313,-0.16793893129770993,-0.564885496183206,-1.0916030534351144
46:42:366455,3.899690551757813,1.580712890625,0.6292913818359376,0.030534351145038167,-0.16793893129770993,-0.5190839694656488
46:42:412837,4.502337341308594,1.7327966308593752,0.6649172973632813,-0.26717557251908397,0.15267175572519084,0.030534351145038167
46:42:412972,3.9640567016601564,1.534010009765625,0.7337741088867188,0.015267175572519083,0.366412213740458,0.7557251908396946
46:42:452904,2.5731491088867187,2.142344970703125,0.8493338012695313,-0.183206106870229,0.4809160305343511,1.2213740458015268
46:42:549030,0.6903643798828125,2.9171337890625,1.107696533203125,-0.08396946564885496,0.5267175572519084,1.6793893129770991
46:42:636909,-0.963995361328125,3.24046142578125,0.9864486694335938,-0.2595419847328244,0.7251908396946565,1.7786259541984732
46:42:681262,-2.040257263183594,3.1225067138671876,0.8978329467773438,-0.3893129770992366,0.6412213740458015,1.6412213740458015
46:42:725212,-2.3507116699218753,2.19623291015625,0.6370751953125,-0.3129770992366412,0.6793893129770993,1.2442748091603053
46:42:772997,-2.2600003051757813,0.8403524780273438,0.5068460083007813,-0.3969465648854962,0.5114503816793893,0.8015267175572519
46:42:773134,-1.2723541259765625,-0.4604425048828125,0.8223898315429687,-0.2595419847328244,0.46564885496183206,0.23664122137404578
46:42:812998,-0.6676116943359376,-0.8376580810546875,1.430724792480469,-0.19083969465648853,-0.12213740458015267,-0.282442748091603
46:42:862298,-0.3299139404296875,-0.6292913818359376,1.4241384887695314,0.183206106870229,-0.32061068702290074,-0.83206106870229
46:43:041024,-0.5206173706054688,0.6903643798828125,1.5361056518554688,-0.22900763358778625,-0.549618320610687,-1.4961832061068703
46:43:089276,-0.276624755859375,2.1953347778320316,2.1797671508789063,-0.17557251908396945,-0.40458015267175573,-1.7709923664122136
46:43:133115,0.3215313720703125,3.573069763183594,2.5465045166015625,-0.2213740458015267,-0.5954198473282443,-1.3511450381679388
46:43:133263,1.251397705078125,3.9365139770507813,2.625839538574219,-0.6335877862595419,-0.7022900763358778,-0.732824427480916
46:43:133367,1.97110107421875,4.113446044921875,2.398911437988281,-0.916030534351145,-0.5572519083969465,-0.04580152671755725
46:43:217061,1.9037411499023438,3.4913397216796875,1.8723065185546877,-1.1832061068702289,-0.5114503816793893,0.45038167938931295
46:43:229881,1.2073892211914063,2.1058209228515627,1.5106585693359376,-1.015267175572519,-0.5267175572519084,0.8015267175572519
