timestamp,accel.x,accel.y,accel.z,gyro.x,gyro.y,gyro.z
54:50:756775,0.355660400390625,-0.45834686279296877,-0.2709365844726563,0.17557251908396945,0.015267175572519083,0.007633587786259542
54:50:837760,0.355660400390625,-0.45834686279296877,-0.2709365844726563,0.17557251908396945,0.015267175572519083,0.007633587786259542
54:50:928946,0.3646417236328125,-0.41433837890625,-0.2951861572265625,0.17557251908396945,0.022900763358778626,0.007633587786259542
54:51:018319,0.3715274047851563,-0.37212615966796875,-0.3239263916015625,0.15267175572519084,0.030534351145038167,0.015267175572519083
54:51:152442,0.3715274047851563,-0.37212615966796875,-0.3239263916015625,0.15267175572519084,0.030534351145038167,0.015267175572519083
54:51:198296,0.37362304687500003,-0.33769775390625,-0.3541635131835938,0.1297709923664122,0.04580152671755725,0.015267175572519083
54:51:203768,0.37242553710937504,-0.3170407104492188,-0.37751495361328125,0.0916030534351145,0.05343511450381679,0.015267175572519083
54:51:287643,0.37242553710937504,-0.3170407104492188,-0.37751495361328125,0.0916030534351145,0.05343511450381679,0.015267175572519083
54:51:287817,0.36793487548828124,-0.31374755859375003,-0.39128631591796875,0.05343511450381679,0.061068702290076333,0.007633587786259542
54:51:287917,0.3646417236328125,-0.3242257690429688,-0.39128631591796875,0.022900763358778626,0.05343511450381679,0.0
54:51:293463,0.3646417236328125,-0.3242257690429688,-0.39128631591796875,0.022900763358778626,0.05343511450381679,0.0
54:51:377670,0.36434234619140626,-0.34518218994140626,-0.37931121826171876,0.0,0.04580152671755725,-0.007633587786259542
54:51:468187,0.36434234619140626,-0.34518218994140626,-0.37931121826171876,0.0,0.04580152671755725,-0.007633587786259542
54:51:473646,0.36973114013671876,-0.37242553710937504,-0.3598516845703125,-0.030534351145038167,0.030534351145038167,-0.015267175572519083
54:51:512571,0.379610595703125,-0.4044589233398438,-0.338895263671875,-0.061068702290076333,0.022900763358778626,-0.030534351145038167
54:51:512773,0.379610595703125,-0.4044589233398438,-0.338895263671875,-0.061068702290076333,0.022900763358778626,-0.030534351145038167
54:51:512882,0.3972738647460938,-0.4397854614257813,-0.31793884277343754,-0.07633587786259542,0.015267175572519083,-0.04580152671755725
54:51:557886,0.415535888671875,-0.47062133789062505,-0.2963836669921875,-0.08396946564885496,0.022900763358778626,-0.061068702290076333
54:51:563340,0.415535888671875,-0.47062133789062505,-0.2963836669921875,-0.08396946564885496,0.022900763358778626,-0.061068702290076333
54:51:563517,0.4278103637695313,-0.494571533203125,-0.2817141723632813,-0.08396946564885496,0.030534351145038167,-0.07633587786259542
54:51:647753,0.4343966674804688,-0.5080435180664062,-0.27872039794921877,-0.07633587786259542,0.03816793893129771,-0.07633587786259542
54:51:647927,0.4343966674804688,-0.5080435180664062,-0.27872039794921877,-0.07633587786259542,0.03816793893129771,-0.07633587786259542
54:51:653131,0.4358935546875,-0.5104385375976562,-0.2847079467773438,-0.061068702290076333,0.04580152671755725,-0.08396946564885496
54:51:739038,0.43110351562500004,-0.5011578369140626,-0.3011737060546875,-0.04580152671755725,0.05343511450381679,-0.07633587786259542
54:51:739173,0.43110351562500004,-0.5011578369140626,-0.3011737060546875,-0.04580152671755725,0.05343511450381679,-0.07633587786259542
54:51:836193,0.4149371337890625,-0.46912445068359376,-0.3320095825195313,-0.015267175572519083,0.05343511450381679,-0.061068702290076333
54:51:841473,0.3254232788085938,-0.4954696655273438,-0.18920654296875,0.07633587786259542,0.007633587786259542,0.007633587786259542
54:51:841605,0.2999761962890625,-0.49187713623046875,-0.1790277099609375,0.0916030534351145,0.0,0.007633587786259542
54:51:841707,0.2999761962890625,-0.49187713623046875,-0.1790277099609375,0.0916030534351145,0.0,0.007633587786259542
54:51:918218,0.27153533935546875,-0.4888833618164063,-0.16675323486328125,0.09923664122137404,-0.007633587786259542,0.015267175572519083
54:51:962528,0.10627899169921876,-0.41074584960937505,-0.056282958984375006,-0.007633587786259542,-0.05343511450381679,0.0916030534351145
54:51:962722,0.08083190917968751,-0.3391946411132813,-0.02903961181640625,-0.015267175572519083,-0.04580152671755725,0.0916030534351145
54:52:008121,0.035326538085937505,-0.207169189453125,0.03323089599609375,-0.04580152671755725,-0.030534351145038167,0.10687022900763359
54:52:097973,-0.0449066162109375,-0.02065704345703125,0.11346405029296876,-0.12213740458015267,-0.030534351145038167,0.1297709923664122
54:52:143050,-0.0449066162109375,-0.02065704345703125,0.11346405029296876,-0.12213740458015267,-0.030534351145038167,0.1297709923664122
54:52:195255,True,False,,,,
54:52:233676,-1.9597247314453126,2.5716522216796878,0.058677978515625,0.45038167938931295,0.06870229007633588,1.9694656488549618
54:52:237037,-1.9824774169921875,2.6533822631835937,-0.0041912841796875,0.29770992366412213,0.11450381679389313,2.0381679389312977
54:52:278422,-1.9824774169921875,2.6533822631835937,-0.0041912841796875,0.29770992366412213,0.11450381679389313,2.0381679389312977
54:52:326106,-1.9591259765625002,2.685415649414063,-0.0161663818359375,0.2213740458015267,0.12213740458015267,2.0839694656488548
54:52:326267,-1.9591259765625002,2.685415649414063,-0.0161663818359375,0.2213740458015267,0.12213740458015267,2.0839694656488548
54:52:332054,-0.046702880859375004,1.251397705078125,-0.233514404296875,-0.8702290076335878,-0.22900763358778625,2.595419847328244
54:52:332214,-0.046702880859375004,1.251397705078125,-0.233514404296875,-0.8702290076335878,-0.22900763358778625,2.595419847328244
54:52:332357,0.13022918701171876,0.9379495239257813,-0.05748046875,-0.8778625954198473,-0.38167938931297707,2.541984732824427
54:52:367544,0.13022918701171876,0.9379495239257813,-0.05748046875,-0.8778625954198473,-0.38167938931297707,2.541984732824427
54:52:413017,0.3209326171875,0.5583389282226563,0.11166778564453125,-0.8549618320610687,-0.5419847328244275,2.450381679389313
54:52:413210,0.3209326171875,0.5583389282226563,0.11166778564453125,-0.8549618320610687,-0.5419847328244275,2.450381679389313
54:52:413351,0.3209326171875,0.5583389282226563,0.11166778564453125,-0.8549618320610687,-0.5419847328244275,2.450381679389313
54:52:547715,0.5098397827148438,-3.6494110107421878,-1.4181509399414063,0.7938931297709924,0.45038167938931295,-2.7022900763358777
54:52:592520,0.5098397827148438,-3.6494110107421878,-1.4181509399414063,0.7938931297709924,0.45038167938931295,-2.7022900763358777
54:52:637467,0.32871643066406253,-3.546724548339844,-1.440604248046875,0.9923664122137404,0.7938931297709924,-3.0763358778625953
54:52:637645,0.32871643066406253,-3.546724548339844,-1.440604248046875,0.9923664122137404,0.7938931297709924,-3.0763358778625953
54:52:637733,-0.012573852539062501,-3.426973571777344,-1.4250366210937502,1.2061068702290076,0.9694656488549618,-3.282442748091603
54:52:637906,True,False,,,,
54:52:736227,-2.877915344238281,3.53744384765625,0.3311114501953125,-0.6641221374045801,-0.7251908396946565,-0.9465648854961831
54:52:777215,True,False,,,,
54:52:862575,-0.5260061645507813,2.779120788574219,-1.3477972412109376,-1.1068702290076335,0.8396946564885496,1.9236641221374045
54:52:862761,-0.5260061645507813,2.779120788574219,-1.3477972412109376,-1.1068702290076335,0.8396946564885496,1.9236641221374045
54:52:910225,-0.42242156982421875,2.3330484008789063,-1.0196795654296875,-1.114503816793893,0.6793893129770993,1.8015267175572518
54:52:910389,-0.42242156982421875,2.3330484008789063,-1.0196795654296875,-1.114503816793893,0.6793893129770993,1.8015267175572518
54:52:910501,-0.3215313720703125,1.9082318115234376,-0.7517367553710937,-1.0916030534351144,0.4961832061068702,1.7862595419847327
54:52:953273,-0.3215313720703125,1.9082318115234376,-0.7517367553710937,-1.0916030534351144,0.4961832061068702,1.7862595419847327
54:52:959091,True,False,,,,
54:53:042720,-0.11645782470703125,1.213077392578125,-0.46253814697265627,-1.0687022900763359,0.13740458015267176,1.9236641221374045
54:53:043055,-0.014070739746093752,0.8858578491210938,-0.41703277587890625,-1.0610687022900762,-0.007633587786259542,2.0
54:53:133438,2.7318191528320312,-2.11959228515625,0.4496649169921875,-0.8396946564885496,-0.09923664122137404,-0.4351145038167939
54:53:133634,2.7318191528320312,-2.11959228515625,0.4496649169921875,-0.8396946564885496,-0.09923664122137404,-0.4351145038167939
54:53:133773,2.8695327758789064,-2.063009948730469,0.4400848388671875,-0.7099236641221374,0.07633587786259542,-0.6641221374045801
54:53:177738,2.8695327758789064,-2.063009948730469,0.4400848388671875,-0.7099236641221374,0.07633587786259542,-0.6641221374045801
54:53:222349,2.9362939453125003,-2.035467224121094,0.45535308837890626,-0.5801526717557252,0.2748091603053435,-0.916030534351145
54:53:222571,2.9362939453125003,-2.035467224121094,0.45535308837890626,-0.5801526717557252,0.2748091603053435,-0.916030534351145
54:53:267680,2.9362939453125003,-2.035467224121094,0.45535308837890626,-0.5801526717557252,0.2748091603053435,-0.916030534351145
54:53:273346,-0.6556365966796875,0.001197509765625,-0.07155120849609375,0.2748091603053435,1.5419847328244274,-3.6030534351145036
54:53:273526,-1.2388238525390625,0.28770172119140625,-0.15477813720703126,0.007633587786259542,1.9618320610687021,-3.213740458015267
54:53:357771,-1.452279968261719,1.272952880859375,0.3823049926757813,0.022900763358778626,2.183206106870229,-2.6946564885496183
54:53:402621,-1.5411950683593751,2.279759216308594,2.428849182128906,0.6641221374045801,0.9770992366412213,-1.4427480916030533
54:53:407928,-0.38290374755859374,1.2567864990234376,0.9654922485351562,1.8473282442748091,0.5114503816793893,-0.8549618320610687
54:53:408043,-0.17992584228515626,1.1169772338867188,0.02844085693359375,1.297709923664122,1.4351145038167938,-1.1908396946564885
54:53:408141,-0.35895355224609377,2.395318908691406,0.47451324462890626,0.6717557251908397,1.045801526717557,-1.0534351145038168
54:53:447612,0.7870632934570313,2.4099884033203125,1.5217355346679688,1.045801526717557,-0.0916030534351145,0.8091603053435115
54:53:494990,1.5142510986328126,-1.766326904296875,2.0683987426757815,0.3129770992366412,-0.030534351145038167,0.22900763358778625
54:53:495203,2.499202880859375,-1.70525390625,1.4708413696289062,-0.7786259541984732,-0.022900763358778626,-0.08396946564885496
54:53:500696,2.556383972167969,-1.4082714843750002,0.4589456176757813,-0.08396946564885496,-0.1450381679389313,0.1297709923664122
54:53:500866,2.4016058349609377,-1.4085708618164063,0.4182302856445313,-0.10687022900763359,-0.12213740458015267,-0.06870229007633588
54:53:537839,2.0698956298828124,-1.1567944335937501,0.645457763671875,0.022900763358778626,-0.13740458015267176,0.0
54:53:582710,2.0902532958984374,-0.8280780029296876,0.5568420410156251,-0.282442748091603,-0.0916030534351145,0.015267175572519083
54:53:588039,2.169288940429688,-1.0975177001953125,0.4221221923828125,-0.20610687022900762,-0.08396946564885496,0.07633587786259542
54:53:672472,2.305505676269531,-1.3007949829101564,0.3170407104492188,0.15267175572519084,-0.022900763358778626,0.04580152671755725
54:53:717376,2.11959228515625,-0.9621990966796875,0.3203338623046875,0.35877862595419846,0.0,0.13740458015267176
54:53:717513,1.9321820068359377,-0.6724017333984376,0.31793884277343754,0.282442748091603,0.04580152671755725,0.07633587786259542
54:53:717610,1.871408386230469,-0.46373565673828127,0.43768981933593754,0.0,0.0,0.022900763358778626
54:53:897583,1.9600241088867187,-0.6882687377929688,0.2655477905273438,-0.2213740458015267,-0.061068702290076333,0.0
54:53:912598,1.7938696289062501,-1.229842529296875,0.16256195068359375,0.13740458015267176,-0.007633587786259542,0.007633587786259542
54:53:943322,1.7393829345703127,-1.0723699951171874,0.27542724609375,0.1297709923664122,0.0,0.022900763358778626
54:53:987433,1.7792001342773438,-0.73048095703125,0.1850152587890625,0.22900763358778625,0.061068702290076333,-0.015267175572519083
54:53:987707,1.6989669799804688,-0.44188110351562504,0.18471588134765626,-0.022900763358778626,-0.03816793893129771,0.007633587786259542
54:54:032641,1.6956738281250001,-0.6697073364257813,0.045505371093750004,-0.08396946564885496,-0.007633587786259542,-0.05343511450381679
54:54:392516,1.5875985717773438,-0.7993377685546875,0.061671752929687504,-0.0916030534351145,0.022900763358778626,-0.07633587786259542
54:54:440084,1.4923965454101564,-0.9283694458007813,0.03742218017578125,-0.030534351145038167,-0.061068702290076333,-0.05343511450381679
54:54:440260,1.689686279296875,-0.7583230590820312,-0.04700225830078125,0.11450381679389313,0.022900763358778626,-0.030534351145038167
54:54:440365,1.5597564697265627,-0.6277944946289062,0.05837860107421875,0.10687022900763359,-0.007633587786259542,0.015267175572519083
54:54:482554,1.3936019897460938,-0.4577481079101563,-0.003592529296875,0.06870229007633588,-0.11450381679389313,-0.007633587786259542
54:54:482728,1.3971945190429689,-0.3592529296875,-0.086220703125,-0.1450381679389313,-0.1297709923664122,-0.030534351145038167
54:54:482848,1.2927117919921876,-0.20387603759765627,0.0431103515625,-0.6106870229007634,0.05343511450381679,-0.1984732824427481
54:54:528546,0.910107421875,0.5466632080078125,0.17124389648437502,-1.0687022900763359,0.16793893129770993,-0.24427480916030533
54:54:617758,-0.1694476318359375,1.4229409790039063,0.619112548828125,-1.3511450381679388,0.48854961832061067,-0.41221374045801523
54:54:617950,-2.3414309692382815,3.593128051757813,1.5223342895507814,-0.549618320610687,-1.0229007633587786,1.1832061068702289
54:54:618054,-3.449726257324219,3.9936950683593753,-0.026943969726562503,-0.19083969465648853,-1.9770992366412212,2.9923664122137406
54:54:662797,-4.175716552734375,4.318519592285156,-1.7606387329101563,-1.0763358778625953,-1.900763358778626,4.083969465648855
54:54:797499,-4.953798522949219,3.446133728027344,-3.1859747314453126,-2.1221374045801524,-2.0229007633587783,4.152671755725191
54:54:851090,-5.0885183715820315,2.262994079589844,-2.7357110595703125,-1.3435114503816794,-1.748091603053435,3.9541984732824424
54:54:977386,-3.1590307617187503,-0.19848724365234377,-1.7456698608398438,-0.549618320610687,-1.66412213740458,3.213740458015267
54:54:977556,-0.6724017333984376,-2.330054626464844,-1.13763427734375,-0.26717557251908397,-1.2213740458015268,1.9923664122137403
54:55:022782,0.6038442993164063,-3.0180239868164063,-0.9613009643554687,-0.21374045801526717,-0.4351145038167939,0.030534351145038167
54:55:068651,0.18561401367187502,-3.291654968261719,-1.4684463500976563,1.3511450381679388,0.6564885496183206,-2.9618320610687023
54:55:068831,-3.133583679199219,-3.9188507080078128,-2.1151016235351565,2.2442748091603053,0.7099236641221374,-4.221374045801527
54:55:112608,-4.4035427856445315,-2.50758544921875,-2.232457580566406,1.1450381679389312,0.8015267175572519,-4.229007633587786
54:55:157507,-4.277804260253906,1.1834390258789063,-3.4631982421875,0.8396946564885496,0.6717557251908397,-3.259541984732824
54:55:203354,-2.9449758911132813,3.723955993652344,0.7364685058593751,-0.35877862595419846,-0.732824427480916,0.22900763358778625
54:55:301025,-1.3430072021484376,3.5628909301757816,-0.8942404174804688,0.8625954198473282,0.35877862595419846,3.282442748091603
54:55:301222,-1.234333190917969,3.3093182373046877,-0.8469387817382813,-0.9465648854961831,0.3893129770992366,2.49618320610687
54:55:337600,-0.6289920043945313,0.9361532592773438,-0.2137554931640625,-1.2519083969465647,0.25190839694656486,2.6030534351145036
54:55:435615,0.020357666015625,-1.0696755981445314,0.02844085693359375,-0.7633587786259541,-0.03816793893129771,2.33587786259542
54:55:435816,0.39128631591796875,-1.7729132080078125,0.15088623046875002,-1.1450381679389312,0.2213740458015267,1.7099236641221374
54:55:472718,0.8672964477539062,-2.321971435546875,0.34787658691406254,-1.0534351145038168,-0.1984732824427481,1.0381679389312977
54:55:517653,1.888173522949219,-2.758463745117188,0.19130218505859375,-0.8167938931297709,-0.061068702290076333,0.16030534351145037
54:55:565634,2.106120300292969,-3.0850845336914063,-0.108973388671875,-0.29770992366412213,0.46564885496183206,-1.1450381679389312
54:55:607429,0.8547225952148438,-3.0590386962890626,-0.2041754150390625,0.21374045801526717,1.2442748091603053,-2.9770992366412212
54:55:652796,-1.7142352294921877,-1.7995578002929689,-0.4981640625,0.732824427480916,1.7175572519083968,-4.114503816793893
54:55:742588,-3.4727783203125,-0.40386016845703127,-0.645457763671875,0.4580152671755725,2.282442748091603,-4.267175572519084
54:55:787457,-3.5709741210937502,0.5846841430664063,-0.7685018920898438,-0.061068702290076333,2.6717557251908395,-3.931297709923664
54:55:968520,-3.124003601074219,2.3540048217773437,0.5454656982421875,0.030534351145038167,2.916030534351145,-2.6412213740458013
54:56:013444,-2.840193786621094,2.848276977539063,1.687291259765625,1.0916030534351144,1.4732824427480915,-0.9389312977099237
54:56:102772,-2.4483087158203127,2.2510189819335937,1.1735595703125001,1.900763358778626,1.2290076335877862,-0.4351145038167939
54:56:148558,-1.0696755981445314,3.480861511230469,0.6400689697265626,1.015267175572519,0.4351145038167939,-0.34351145038167935
54:56:154068,0.7691006469726563,1.8408718872070313,1.6184344482421875,1.465648854961832,0.061068702290076333,0.8625954198473282
54:56:192524,2.039059753417969,-0.15537689208984376,1.3953982543945314,0.8015267175572519,0.282442748091603,0.282442748091603
54:56:192730,2.142045593261719,-0.5029541015625,1.5702346801757814,-0.1984732824427481,-0.10687022900763359,0.0
54:56:237426,2.249821472167969,-0.7125183105468751,0.8652008056640625,-0.23664122137404578,-0.061068702290076333,-0.05343511450381679
54:56:237573,2.3333477783203125,-0.7529342651367188,0.4793032836914063,-0.16030534351145037,0.030534351145038167,-0.015267175572519083
54:56:237658,2.3908282470703126,-0.908909912109375,0.46882507324218753,-0.06870229007633588,-0.007633587786259542,0.0
54:56:282823,2.3540048217773437,-0.9475296020507813,0.590372314453125,0.09923664122137404,-0.007633587786259542,0.015267175572519083
54:56:553173,2.1878503417968753,-0.678988037109375,0.599952392578125,0.08396946564885496,0.030534351145038167,0.061068702290076333
54:56:558796,2.1234841918945313,-0.45565246582031255,0.477806396484375,0.007633587786259542,0.030534351145038167,0.007633587786259542
54:56:643471,2.072590026855469,-0.43230102539062504,0.42272094726562504,-0.07633587786259542,-0.04580152671755725,0.007633587786259542
54:56:778074,2.168690185546875,-0.5346881103515625,0.39577697753906255,0.03816793893129771,0.022900763358778626,-0.022900763358778626
54:56:876251,2.1668939208984375,-0.2520758056640625,0.42122406005859375,-0.1297709923664122,-0.030534351145038167,0.0
54:56:915238,2.0707937622070314,-0.6882687377929688,0.12304412841796876,-0.12213740458015267,-0.05343511450381679,-0.04580152671755725
54:56:915407,1.7941690063476563,-1.0651849365234376,0.32841705322265624,0.2748091603053435,0.0,0.030534351145038167
54:57:002617,1.888173522949219,-0.6140231323242188,0.23381378173828127,0.3129770992366412,-0.007633587786259542,-0.015267175572519083
54:57:002806,2.0037332153320313,0.046403503417968756,0.16735198974609375,0.13740458015267176,0.03816793893129771,-0.05343511450381679
54:57:093362,1.9402651977539063,0.0484991455078125,0.128133544921875,-0.1297709923664122,-0.061068702290076333,-0.015267175572519083
54:57:098777,1.888173522949219,-0.4544549560546875,0.0173638916015625,-0.15267175572519084,-0.015267175572519083,-0.09923664122137404
54:57:098977,1.7759069824218752,-0.7454498291015625,0.058977355957031255,-0.07633587786259542,0.03816793893129771,-0.06870229007633588
54:57:182716,1.7962646484375,-0.7074288940429688,-0.0005987548828125,0.0916030534351145,0.06870229007633588,-0.03816793893129771
54:57:273423,1.760039978027344,-0.3921844482421875,-0.054187316894531254,0.16030534351145037,0.04580152671755725,-0.015267175572519083
54:57:279068,1.7070501708984376,-0.23860382080078127,-0.04819976806640625,0.08396946564885496,0.015267175572519083,-0.015267175572519083
54:57:317798,1.5768209838867189,-0.27542724609375,0.067060546875,-0.061068702290076333,0.015267175572519083,-0.061068702290076333
54:57:317930,1.402283935546875,0.057779846191406255,0.20148101806640625,-0.22900763358778625,0.07633587786259542,-0.1297709923664122
54:57:318015,0.6274951171875001,1.2457095336914064,0.5559439086914063,-0.5954198473282443,-0.07633587786259542,0.03816793893129771
54:57:362726,-0.680185546875,2.492017822265625,0.5454656982421875,-0.6717557251908397,-0.4351145038167939,0.6106870229007634
54:57:362869,-2.3037094116210937,3.3718881225585937,0.06436614990234375,0.05343511450381679,-0.8778625954198473,2.1526717557251906
54:57:362970,-3.2260913085937504,3.7218603515625004,-1.4429992675781251,-0.5190839694656488,-0.7557251908396946,3.0610687022900764
54:57:452569,-4.386478271484375,3.7781433105468754,-2.5899142456054687,-1.564885496183206,-0.9847328244274809,3.9770992366412212
54:57:498512,-5.059778137207031,2.6012905883789066,-2.985391845703125,-1.4045801526717556,-0.732824427480916,4.198473282442748
54:57:543294,-4.681963806152344,0.961600341796875,-2.28245361328125,-1.3587786259541985,-0.4809160305343511,3.9847328244274807
54:57:548677,-2.2773641967773437,-1.2819342041015627,-1.2037966918945313,-1.1221374045801527,-0.8702290076335878,2.801526717557252
54:57:633129,0.15298187255859375,-2.305206298828125,-0.30446685791015626,-0.1450381679389313,-0.6870229007633587,1.6870229007633588
54:57:686315,0.34398468017578127,-3.2254925537109376,0.09430389404296875,0.25190839694656486,-0.9923664122137404,0.7709923664122137
54:57:723384,0.9068142700195313,-3.4015264892578125,-1.0565029907226564,-0.16030534351145037,0.22900763358778625,-2.0839694656488548
54:57:768311,-2.815345458984375,-3.9607635498046876,-0.7391629028320312,1.7862595419847327,0.5038167938931297,-3.8854961832061066
54:57:773633,-3.4518218994140626,-2.56506591796875,-2.11480224609375,1.5572519083969465,0.7175572519083969,-4.129770992366412
54:57:862480,-4.169130249023437,-0.31674133300781254,-1.6636404418945314,1.2900763358778626,0.6870229007633587,-3.763358778625954
54:57:993299,-3.5853442382812504,3.0428723144531253,-0.1730401611328125,-1.0916030534351144,-0.061068702290076333,-1.9541984732824427
54:58:083492,-0.4816983032226563,3.620970153808594,0.13561798095703126,1.015267175572519,-0.282442748091603,2.282442748091603
54:58:083706,-0.3035687255859375,3.4191897583007815,-1.0855426025390627,-0.5038167938931297,0.3282442748091603,2.2748091603053435
54:58:089430,-0.8077203369140625,2.5333319091796875,-0.738863525390625,-1.0,0.38167938931297707,2.450381679389313
54:58:172820,-0.559237060546875,0.15358062744140627,0.05239105224609375,-1.4427480916030533,-0.061068702290076333,2.4885496183206106
54:58:217694,-0.15687377929687502,-1.8013540649414064,-0.05718109130859375,-1.0916030534351144,0.03816793893129771,1.9770992366412212
54:58:217834,0.25387207031250003,-2.342029724121094,0.02005828857421875,-0.7938931297709924,-0.1984732824427481,1.3511450381679388
54:58:262594,1.3971945190429689,-2.8895910644531253,-0.18202148437500001,-0.6030534351145038,0.0,0.5267175572519084
54:58:361222,1.9492465209960939,-3.234473876953125,-0.34907409667968753,-0.4580152671755725,0.41221374045801523,-0.5725190839694656
54:58:442696,1.4471905517578125,-3.2925531005859376,0.4520599365234375,-0.3282442748091603,0.8625954198473282,-1.9389312977099236
54:58:442888,-0.2927911376953125,-2.5001010131835937,0.08292755126953126,0.9923664122137404,1.0610687022900762,-3.0534351145038165
54:58:490593,-2.1408480834960937,-1.1538006591796877,-0.8265811157226562,0.6106870229007634,1.534351145038168,-4.030534351145038
54:58:532524,-3.4715808105468753,-0.39547760009765626,-0.9098080444335938,0.4198473282442748,2.045801526717557,-4.045801526717557
54:58:622455,-3.4263748168945316,1.4543756103515626,-0.5984555053710938,-0.33587786259541985,2.8931297709923665,-3.6717557251908395
54:58:622682,-2.9656329345703125,2.319277038574219,1.2843292236328125,0.6183206106870229,2.351145038167939,-2.0076335877862594
54:58:670060,-2.7898983764648437,2.8491751098632814,2.253414001464844,1.282442748091603,1.4732824427480915,-0.916030534351145
54:58:867213,-2.0013381958007814,2.894979858398438,1.330433349609375,1.465648854961832,0.6106870229007634,-0.3053435114503817
54:58:893215,0.35176849365234375,2.7021807861328124,1.234333190917969,0.6030534351145038,0.33587786259541985,0.16793893129770993
54:58:937545,1.5795153808593752,0.61552001953125,1.6666342163085939,1.198473282442748,0.20610687022900762,0.5114503816793893
54:58:937700,2.1342617797851564,-0.031734008789062504,1.4558724975585937,0.41221374045801523,0.10687022900763359,0.1297709923664122
54:58:937808,2.0863613891601562,-0.44188110351562504,1.320853271484375,-0.22900763358778625,-0.15267175572519084,-0.05343511450381679
54:58:982440,2.2085073852539066,-0.5415737915039063,0.822689208984375,-0.366412213740458,-0.09923664122137404,-0.03816793893129771
54:58:988239,2.321971435546875,-0.6759942626953125,0.56282958984375,-0.12213740458015267,0.0,-0.030534351145038167
54:59:162514,2.2740710449218753,-0.5367837524414063,0.5248086547851563,-0.10687022900763359,-0.030534351145038167,0.007633587786259542
54:59:208029,2.2216799926757815,-0.6319857788085937,0.5481600952148438,0.10687022900763359,0.015267175572519083,0.04580152671755725
54:59:208159,2.1276754760742187,-0.4796026611328125,0.5774990844726563,0.13740458015267176,0.022900763358778626,0.061068702290076333
54:59:252792,2.0722906494140627,-0.3733236694335938,0.5200186157226563,0.06870229007633588,0.015267175572519083,0.030534351145038167
54:59:258178,2.0686981201171877,-0.34518218994140626,0.45834686279296877,0.022900763358778626,-0.007633587786259542,0.015267175572519083
54:59:297706,2.103725280761719,-0.37751495361328125,0.425115966796875,0.05343511450381679,0.022900763358778626,0.015267175572519083
54:59:342555,2.090552673339844,-0.29069549560546876,0.3948788452148438,-0.05343511450381679,-0.007633587786259542,0.007633587786259542
54:59:612928,1.9690054321289063,-0.6948550415039063,0.18082397460937502,0.022900763358778626,-0.015267175572519083,0.007633587786259542
54:59:618509,1.701661376953125,-0.9110055541992188,0.3894900512695313,0.29770992366412213,0.06870229007633588,-0.030534351145038167
54:59:702681,1.8821859741210938,-0.24459136962890626,0.307760009765625,0.0916030534351145,0.007633587786259542,-0.11450381679389313
54:59:747658,1.994751892089844,0.09430389404296875,0.18232086181640625,0.09923664122137404,0.03816793893129771,-0.04580152671755725
54:59:747851,1.9166143798828126,0.030237121582031252,0.12484039306640625,-0.007633587786259542,-0.03816793893129771,0.022900763358778626
54:59:882796,1.815125427246094,-0.4182302856445313,0.149688720703125,-0.13740458015267176,-0.022900763358778626,-0.05343511450381679
54:59:930156,1.7256115722656251,-0.5933660888671876,0.14579681396484376,-0.15267175572519084,0.030534351145038167,-0.06870229007633588
54:59:973686,1.723216552734375,-0.5272036743164062,0.015867004394531252,0.0,0.007633587786259542,-0.04580152671755725
54:59:973866,1.7833914184570314,-0.4966671752929688,-0.041912841796875,0.15267175572519084,0.05343511450381679,-0.030534351145038167
55:00:063332,1.618733825683594,-0.3538641357421875,0.10807525634765626,0.17557251908396945,0.022900763358778626,-0.03816793893129771
55:00:063506,1.5025753784179687,0.19130218505859375,0.10837463378906251,-0.16030534351145037,0.03816793893129771,-0.05343511450381679
55:00:063608,1.3100756835937502,0.16854949951171877,0.5945635986328125,-0.17557251908396945,0.11450381679389313,-0.015267175572519083
55:00:063721,0.8517288208007813,1.1576925659179689,0.6152206420898437,-0.12213740458015267,-0.13740458015267176,-0.19083969465648853
55:00:197498,-0.192799072265625,2.460882568359375,-0.18202148437500001,-0.549618320610687,-0.1297709923664122,0.5877862595419847
55:00:197671,-2.312091979980469,3.878434753417969,-0.5287005615234375,-0.916030534351145,-0.8702290076335878,1.8702290076335877
55:00:251268,-3.4054183959960938,3.1641201782226562,-1.5495776367187502,-0.8167938931297709,-1.282442748091603,3.0381679389312977
55:00:251414,-3.5619927978515626,3.05843994140625,-1.9019448852539063,-0.8167938931297709,-0.9236641221374046,3.480916030534351
55:00:251498,-3.913162536621094,2.690505065917969,-2.1453387451171877,-1.2213740458015268,-0.7786259541984732,3.8091603053435112
55:00:377688,-3.853287048339844,1.244212646484375,-1.8315911865234376,-1.2290076335877862,-0.5419847328244275,3.8931297709923665
55:00:425935,-2.0713925170898437,-1.0385403442382812,-0.7834707641601563,-1.366412213740458,-0.6259541984732824,2.801526717557252
55:00:512872,-0.15627502441406252,-2.2902374267578125,0.0772393798828125,-0.6030534351145038,-1.0076335877862594,1.7709923664122136
55:00:557740,1.0783575439453126,-3.0856832885742187,-0.09909393310546875,0.37404580152671757,-0.7557251908396946,0.83206106870229
55:00:563040,1.2373269653320313,-3.4027239990234377,-0.32482452392578126,0.23664122137404578,-0.5114503816793893,-0.5954198473282443
55:00:603563,0.41613464355468754,-3.579955444335938,-0.2915936279296875,0.1297709923664122,0.4351145038167939,-2.3053435114503817
55:00:648439,-1.5642471313476562,-3.9700442504882814,-0.4816983032226563,1.366412213740458,0.7099236641221374,-3.66412213740458
55:00:653742,-3.2003448486328128,-2.30640380859375,-0.9984237670898438,1.3740458015267174,0.8244274809160305,-4.061068702290076
55:00:692875,-4.223317565917969,1.4771282958984375,-1.819915466308594,0.9312977099236641,0.8702290076335878,-2.6946564885496183
55:00:737486,-1.7995578002929689,3.5084042358398437,1.11847412109375,0.5343511450381679,-1.2519083969465647,0.37404580152671757
55:00:917905,0.9499246215820313,3.326382751464844,-1.3959970092773437,0.183206106870229,0.35877862595419846,2.0381679389312977
55:00:936408,-1.3897100830078126,3.5595977783203128,-1.052611083984375,-0.8396946564885496,0.6030534351145038,2.4580152671755724
55:01:007639,-1.0193801879882813,1.533710632324219,-0.19788848876953127,-1.2748091603053435,0.33587786259541985,2.4198473282442747
55:01:007789,-0.7451504516601563,-0.9328601074218751,0.09520202636718751,-0.7557251908396946,0.015267175572519083,2.351145038167939
55:01:007903,0.18950592041015626,-2.3507116699218753,0.16645385742187502,-0.916030534351145,0.2748091603053435,1.3511450381679388
55:01:064064,0.8391549682617188,-2.6237438964843753,0.44188110351562504,-0.9694656488549618,-0.16793893129770993,0.8549618320610687
55:01:100958,2.089355163574219,-3.1805859375,0.0484991455078125,-0.5877862595419847,0.183206106870229,-0.2900763358778626
55:01:195961,1.9393670654296875,-3.3488360595703126,0.08113128662109376,0.16030534351145037,0.5114503816793893,-1.4198473282442747
55:01:235033,0.46493316650390626,-2.5602758789062503,0.009580078125,0.6183206106870229,0.9236641221374046,-2.7404580152671754
55:01:235219,-1.13284423828125,-1.114582214355469,-0.269439697265625,0.2748091603053435,1.3587786259541985,-3.595419847328244
55:01:367840,-2.471360778808594,-0.9370513916015626,-0.5418731689453126,0.5038167938931297,1.8244274809160304,-3.8931297709923665
55:01:412621,-2.9560528564453126,0.288599853515625,-0.9624984741210938,0.2748091603053435,3.030534351145038,-3.6946564885496183
55:01:418028,-2.827919311523438,2.161505126953125,0.37631744384765625,0.007633587786259542,3.068702290076336,-2.778625954198473
55:01:502444,-2.5626708984375,2.027084655761719,2.201921081542969,1.618320610687023,1.3435114503816794,-0.6030534351145038
55:01:547850,-2.472258911132813,1.3705499267578125,0.37362304687500003,2.33587786259542,0.9389312977099237,-0.3282442748091603
55:01:596140,-1.071771240234375,3.570674743652344,0.0532891845703125,0.9312977099236641,0.5572519083969465,-0.4580152671755725
55:01:682533,1.1873309326171875,1.5932867431640625,1.2822335815429688,0.7022900763358778,0.23664122137404578,0.8549618320610687
55:01:773283,2.4144790649414065,-0.28979736328125,1.2933105468750001,0.5801526717557252,0.20610687022900762,0.2595419847328244
55:01:773451,2.3546035766601565,-0.5658233642578125,1.6121475219726564,0.33587786259541985,0.007633587786259542,0.1297709923664122
55:01:773566,2.2372476196289064,-0.9574090576171875,1.4711407470703126,-0.0916030534351145,-0.022900763358778626,0.030534351145038167
55:01:778965,2.3725662231445312,-0.9229806518554688,1.06578369140625,-0.2213740458015267,-0.030534351145038167,0.0
55:01:862662,2.5267456054687503,-0.8352630615234375,0.7128176879882813,-0.030534351145038167,-0.08396946564885496,0.09923664122137404
55:02:062660,2.638712768554688,-0.8286767578125,0.5652246093750001,0.11450381679389313,0.015267175572519083,0.09923664122137404
55:02:062818,2.4201672363281252,-0.7601193237304688,0.7074288940429688,0.20610687022900762,0.06870229007633588,0.10687022900763359
55:02:133392,2.2435345458984375,-0.6194119262695312,0.7640112304687501,0.030534351145038167,0.015267175572519083,0.030534351145038167
55:02:133546,2.288141784667969,-0.571212158203125,0.6804849243164063,-0.04580152671755725,-0.007633587786259542,-0.022900763358778626
55:02:133635,2.4111859130859377,-0.4385879516601563,0.6391708374023438,-0.1297709923664122,0.007633587786259542,-0.04580152671755725
55:02:178359,2.4602838134765626,-0.585582275390625,0.42421783447265626,-0.22900763358778625,-0.05343511450381679,-0.061068702290076333
55:02:178517,2.2183868408203127,-1.2516970825195313,0.4305047607421875,0.16030534351145037,0.04580152671755725,0.0
55:02:222794,2.1369561767578125,-0.925675048828125,0.5050497436523438,0.2748091603053435,0.03816793893129771,-0.061068702290076333
55:02:537526,2.3141876220703126,-0.21136047363281252,0.3008743286132813,0.12213740458015267,0.04580152671755725,-0.0916030534351145
55:02:672713,2.2722747802734378,-0.07813751220703126,0.4137396240234375,0.022900763358778626,-0.030534351145038167,-0.030534351145038167
55:02:672858,2.2543121337890626,-0.36015106201171876,0.19369720458984377,-0.08396946564885496,-0.05343511450381679,-0.061068702290076333
55:02:807437,2.1174966430664064,-0.6017486572265626,0.21195922851562501,-0.08396946564885496,0.0,-0.0916030534351145
55:02:807594,2.1151016235351565,-0.6981481933593751,0.22123992919921875,-0.022900763358778626,0.022900763358778626,-0.0916030534351145
55:02:807678,2.1653970336914066,-0.4805007934570313,0.11346405029296876,0.007633587786259542,0.015267175572519083,-0.07633587786259542
55:02:852486,2.132465515136719,-0.2820135498046875,0.1251397705078125,0.007633587786259542,0.03816793893129771,-0.03816793893129771
55:02:870413,1.9651135253906251,-0.33679962158203125,0.18082397460937502,-0.06870229007633588,-0.007633587786259542,-0.03816793893129771
55:02:870585,1.8438656616210938,-0.3511697387695313,0.22034179687500002,-0.0916030534351145,0.015267175572519083,-0.06870229007633588
55:02:898198,1.6531622314453125,0.15687377929687502,0.40655456542968754,-0.4198473282442748,-0.022900763358778626,-0.183206106870229
55:02:898410,1.213077392578125,0.9816586303710938,0.5876779174804688,-0.8931297709923663,-0.17557251908396945,-0.33587786259541985
55:02:898565,0.469423828125,2.186054077148438,0.44457550048828126,-1.129770992366412,-0.29770992366412213,-0.13740458015267176
55:02:987957,-1.2091854858398439,3.474873962402344,0.889749755859375,-0.6106870229007634,-0.8549618320610687,1.045801526717557
55:02:988151,-2.851270751953125,4.063450012207031,-0.14699432373046875,-0.08396946564885496,-1.3893129770992365,2.564885496183206
55:03:173448,-3.7152740478515627,3.8841229248046876,-1.5181430053710938,-0.3053435114503817,-1.2442748091603053,3.633587786259542
55:03:213434,-4.285887451171876,2.8330087280273437,-2.398312683105469,-1.3053435114503815,-1.0,3.8854961832061066
55:03:302845,-4.275409240722657,1.4196478271484376,-2.4827371215820313,-1.3358778625954197,-0.732824427480916,3.7175572519083966
55:03:347597,-3.2386651611328126,-0.21884490966796877,-1.565145263671875,-0.9770992366412213,-0.6106870229007634,3.3740458015267176
55:03:347721,-1.152902526855469,-1.6130456542968752,-0.6038442993164063,-0.5267175572519084,-0.7404580152671756,2.3053435114503817
55:03:347804,0.3703298950195313,-2.605481872558594,-0.023351440429687502,-0.26717557251908397,-0.6641221374045801,1.3511450381679388
55:03:392457,1.1142828369140625,-3.3461416625976566,0.18082397460937502,-0.05343511450381679,-0.41221374045801523,-0.030534351145038167
55:03:392632,0.7682025146484376,-3.5955230712890627,-0.0143701171875,0.33587786259541985,-0.3129770992366412,-1.7633587786259541
55:03:482819,-0.77838134765625,-4.198169860839844,-0.9110055541992188,0.9694656488549618,0.7175572519083969,-3.633587786259542
55:03:527728,-3.090473327636719,-4.392166442871094,-1.3430072021484376,1.0381679389312977,1.2442748091603053,-4.633587786259541
55:03:617440,-4.108356628417969,-1.08973388671875,-2.442021789550781,2.732824427480916,0.9770992366412213,-2.9770992366412212
55:03:617604,-2.31837890625,2.681823120117188,-0.7753875732421875,-1.8625954198473282,-0.7862595419847328,-1.2366412213740459
55:03:662447,0.8319699096679688,3.147355041503906,-0.434696044921875,0.8473282442748091,0.29770992366412213,1.8931297709923662
55:03:707478,0.427510986328125,3.1659164428710938,-0.5284011840820313,-0.2213740458015267,0.37404580152671757,1.83206106870229
55:03:707795,0.16046630859375,2.7632537841796876,-0.42032592773437505,-0.732824427480916,0.29770992366412213,2.16793893129771
55:03:797524,0.1933978271484375,0.9801617431640626,-0.04101470947265625,-1.3358778625954197,0.35877862595419846,2.099236641221374
55:03:842446,0.04939727783203125,-0.7996371459960938,0.0032931518554687503,-1.2900763358778626,0.21374045801526717,1.8625954198473282
55:03:933226,0.4559518432617188,-2.1007315063476564,0.4245172119140625,-0.9923664122137404,0.09923664122137404,1.1526717557251909
55:03:977728,1.17595458984375,-2.9928762817382815,0.5367837524414063,-0.46564885496183206,-0.32061068702290074,0.3282442748091603
55:04:025503,1.9600241088867187,-3.47996337890625,-0.07155120849609375,-0.07633587786259542,0.21374045801526717,-0.7633587786259541
55:04:157647,1.2349319458007812,-3.759581909179688,-0.137713623046875,0.15267175572519084,0.8015267175572519,-2.3053435114503817
55:04:157810,-0.8798703002929688,-2.602188720703125,-0.30267059326171875,0.5419847328244275,1.297709923664122,-3.595419847328244
55:04:210826,-2.4974066162109376,-1.2118798828125001,-0.784368896484375,0.564885496183206,1.6335877862595418,-3.900763358778626
55:04:258003,-2.847378845214844,0.40386016845703127,-1.0397378540039064,0.08396946564885496,2.282442748091603,-3.8167938931297707
55:04:258267,-2.8386968994140624,2.0839663696289064,0.6086343383789062,0.015267175572519083,2.748091603053435,-2.5267175572519083
55:04:428483,-2.6934988403320315,2.74229736328125,1.36037109375,1.5038167938931297,1.9465648854961832,-1.0916030534351144
55:04:428684,-2.1285736083984377,2.372266845703125,0.8544232177734375,1.8625954198473282,0.9312977099236641,-0.38167938931297707
55:04:445096,-0.7514373779296876,3.1027478027343753,1.1130853271484376,1.083969465648855,0.9465648854961831,-0.3893129770992366
55:04:607581,1.1585906982421876,1.5693365478515626,1.7666262817382814,1.7251908396946565,0.24427480916030533,1.1832061068702289
55:04:697841,1.901346130371094,-0.25237518310546875,2.1219873046875,0.20610687022900762,-0.13740458015267176,0.0
55:04:697980,2.394720153808594,-0.6532415771484376,1.3950988769531252,-0.08396946564885496,-0.03816793893129771,-0.030534351145038167
55:04:703684,2.532733154296875,-0.8655001831054688,0.95561279296875,-0.04580152671755725,0.05343511450381679,-0.061068702290076333
55:04:878441,2.502496032714844,-0.9870474243164064,0.9544152832031251,-0.1450381679389313,-0.15267175572519084,0.007633587786259542
55:04:967802,2.60817626953125,-1.2340338134765625,0.8092172241210938,0.0916030534351145,0.007633587786259542,0.030534351145038167
55:04:967963,2.4938140869140626,-1.0553054809570312,0.8472381591796876,0.21374045801526717,0.007633587786259542,0.06870229007633588
55:04:968066,2.4189697265625,-0.6562353515625,0.825084228515625,0.030534351145038167,0.015267175572519083,0.03816793893129771
55:05:012609,2.4755520629882812,-0.6559359741210938,0.7056326293945313,-0.09923664122137404,-0.022900763358778626,0.0
55:05:103356,2.3462210083007813,-0.8158035278320312,0.6978488159179688,-0.05343511450381679,-0.015267175572519083,-0.007633587786259542
55:05:103502,2.3246658325195315,-0.9753717041015626,0.67060546875,0.03816793893129771,-0.022900763358778626,0.04580152671755725
55:05:103606,2.421065368652344,-0.8780740356445313,0.6086343383789062,-0.007633587786259542,0.05343511450381679,-0.022900763358778626
55:05:108986,2.4108865356445315,-0.9744735717773438,0.449066162109375,0.0916030534351145,-0.015267175572519083,0.05343511450381679
55:05:147815,2.202220458984375,-1.0400372314453126,0.44038421630859376,0.32061068702290074,0.03816793893129771,0.030534351145038167
55:05:192699,2.2013223266601565,-0.6400689697265626,0.51013916015625,0.1450381679389313,0.007633587786259542,-0.06870229007633588
55:05:192864,2.2974224853515626,-0.3116519165039063,0.47840515136718753,-0.015267175572519083,0.0,-0.0916030534351145
55:05:327902,2.312391357421875,-0.3598516845703125,0.38170623779296875,-0.17557251908396945,0.022900763358778626,-0.09923664122137404
55:05:373363,2.2100042724609374,-0.58198974609375,0.204774169921875,-0.12213740458015267,-0.007633587786259542,-0.10687022900763359
55:05:373554,2.168989562988281,-0.7547305297851563,0.27063720703125,-0.13740458015267176,0.007633587786259542,-0.06870229007633588
55:05:462646,2.1761746215820312,-0.726888427734375,0.22303619384765627,-0.03816793893129771,0.06870229007633588,-0.04580152671755725
55:05:507978,2.089355163574219,-0.4535568237304688,0.20118164062500002,-0.1297709923664122,0.022900763358778626,-0.030534351145038167
55:05:508163,2.0124151611328127,-0.346080322265625,0.24638763427734375,-0.2213740458015267,0.0,-0.09923664122137404
55:05:642664,1.9309844970703125,0.092208251953125,0.2963836669921875,-0.47328244274809156,0.0,-0.21374045801526717
55:05:642872,1.661844177246094,0.5739065551757813,0.3146456909179688,-0.4961832061068702,0.04580152671755725,-0.22900763358778625
55:05:687600,0.8768765258789063,1.5980767822265627,0.7442523193359375,-0.7404580152671756,-0.35877862595419846,0.05343511450381679
55:05:777374,-0.44846740722656253,2.442919921875,-0.223934326171875,-0.4809160305343511,-1.0229007633587786,0.7557251908396946
55:05:777558,-1.69327880859375,3.310515747070313,-0.39308258056640627,-0.25190839694656486,-0.8244274809160305,1.9465648854961832
55:05:822512,-1.7612374877929688,2.6000930786132814,-0.05957611083984375,0.37404580152671757,-0.3893129770992366,2.633587786259542
55:05:913599,-2.0890557861328127,2.386636962890625,-0.643062744140625,-0.8167938931297709,-0.6259541984732824,3.259541984732824
55:05:913736,-2.8497738647460937,1.4558724975585937,-1.4456936645507814,-1.1755725190839694,-0.7557251908396946,3.480916030534351
55:06:002795,-2.8533663940429688,0.7319778442382813,-1.7013619995117188,-0.8549618320610687,-0.32061068702290074,3.633587786259542
55:06:002932,-2.0148101806640626,0.02125579833984375,-1.3382171630859376,-0.9541984732824427,-0.19083969465648853,3.2213740458015265
55:06:137503,-0.44337799072265627,-1.2199630737304688,-0.5550457763671875,-0.8091603053435115,-0.1984732824427481,2.213740458015267
55:06:137669,0.669407958984375,-2.4183709716796877,0.33859588623046877,-0.3893129770992366,-0.3511450381679389,1.3206106870229006
55:06:182488,1.3364208984375001,-3.1892678833007815,0.5062472534179687,-0.35877862595419846,-0.5190839694656488,0.015267175572519083
55:06:188216,0.8714877319335937,-3.516487426757813,0.076640625,0.7251908396946565,-0.07633587786259542,-1.83206106870229
55:06:227471,-1.2175680541992189,-4.098477172851562,-0.36434234619140626,1.1450381679389312,0.03816793893129771,-3.229007633587786
55:06:272704,-2.37825439453125,-3.266507263183594,-0.8122109985351563,1.0229007633587786,0.549618320610687,-4.0534351145038165
55:06:320136,-4.194577331542969,-0.71611083984375,-1.7953665161132812,2.9389312977099236,0.5267175572519084,-3.213740458015267
55:06:362946,-1.6100518798828125,2.568359069824219,-1.811532897949219,-2.931297709923664,-0.6717557251908397,-1.465648854961832
55:06:497634,0.9630972290039063,3.0802944946289066,-1.2900173950195313,0.6564885496183206,0.5038167938931297,1.9541984732824427
55:06:517113,-0.8619076538085938,3.2877630615234374,-1.2373269653320313,-0.2595419847328244,0.3893129770992366,2.717557251908397
55:06:517251,-0.7059320068359375,1.9333795166015626,-0.504151611328125,-1.4045801526717556,0.48854961832061067,2.0381679389312977
55:06:632446,-0.6981481933593751,-0.2859054565429688,-0.12633728027343752,-1.083969465648855,0.015267175572519083,2.351145038167939
55:06:680111,0.10837463378906251,-1.8785934448242188,-0.06466552734375,-0.6259541984732824,0.34351145038167935,1.6030534351145038
55:06:722594,0.5373825073242188,-2.090552673339844,0.19549346923828126,-0.7404580152671756,0.030534351145038167,1.0916030534351144
55:06:820703,1.6444802856445313,-2.9713211059570312,0.26375152587890627,-0.7938931297709924,0.21374045801526717,0.1297709923664122
55:06:820909,1.7450711059570314,-3.1596295166015627,0.4796026611328125,-0.8625954198473282,0.4351145038167939,-1.099236641221374
55:06:857851,0.803529052734375,-3.347937927246094,0.2604583740234375,0.3969465648854962,1.2290076335877862,-2.549618320610687
55:06:903673,-1.99984130859375,-1.6387921142578126,-0.5176235961914063,0.9312977099236641,1.5267175572519083,-3.709923664122137
55:06:950476,-3.2757879638671876,-0.29758117675781254,-0.7873626708984376,0.6183206106870229,1.5954198473282442,-3.6946564885496183
55:06:995451,-3.2090267944335937,0.83107177734375,-0.469423828125,-0.06870229007633588,2.4580152671755724,-3.7938931297709924
55:06:995649,-3.050057373046875,2.1067190551757813,0.45265869140625004,0.22900763358778625,2.633587786259542,-2.5801526717557253
55:07:083445,-2.7566674804687503,2.37825439453125,1.6540603637695312,1.2519083969465647,1.9236641221374045,-1.4885496183206106
55:07:176431,-2.5967999267578126,2.852168884277344,0.7487429809570313,0.9923664122137404,1.3893129770992365,-0.9007633587786259
55:07:225689,-1.13763427734375,2.386337585449219,2.0675006103515625,1.4198473282442747,0.6412213740458015,-0.34351145038167935
55:07:262776,0.8496331787109376,2.6806256103515627,1.558858337402344,0.5419847328244275,0.3053435114503817,0.16030534351145037
55:07:263002,1.7917739868164064,0.7170089721679688,1.8013540649414064,0.6870229007633587,-0.0916030534351145,0.564885496183206
55:07:352648,2.4237597656250003,-0.6544390869140625,1.2466076660156251,0.22900763358778625,0.12213740458015267,0.1297709923664122
55:07:443409,2.425556030273438,-0.7481442260742188,1.1352392578125001,-0.13740458015267176,-0.16030534351145037,0.061068702290076333
55:07:540967,2.5809329223632815,-1.1190728759765625,0.7334747314453125,0.0916030534351145,0.04580152671755725,0.022900763358778626
55:07:541153,2.4836352539062503,-0.8705895996093751,0.7283853149414062,0.1297709923664122,0.030534351145038167,0.05343511450381679
55:07:577594,2.439327392578125,-0.8184979248046875,0.7229965209960938,0.2213740458015267,0.022900763358778626,0.09923664122137404
55:07:675703,2.46926513671875,-0.5676196289062501,0.7011419677734375,0.25190839694656486,0.08396946564885496,0.10687022900763359
55:07:675881,2.334844665527344,-0.4493655395507813,0.7223977661132813,0.061068702290076333,0.015267175572519083,0.0916030534351145
55:07:712739,2.2495220947265624,-0.547261962890625,0.6511459350585938,0.015267175572519083,0.022900763358778626,0.007633587786259542
55:07:757674,2.2605990600585937,-0.5191204833984375,0.6741979980468751,-0.07633587786259542,-0.015267175572519083,0.022900763358778626
55:07:757842,2.3474185180664064,-0.6487509155273438,0.5098397827148438,-0.13740458015267176,-0.007633587786259542,-0.061068702290076333
55:07:847425,2.485431518554688,-0.5918692016601563,0.42571472167968755,-0.16793893129770993,0.022900763358778626,-0.015267175572519083
55:07:895280,2.2707778930664064,-0.9178912353515626,0.20267852783203125,0.030534351145038167,0.022900763358778626,-0.015267175572519083
55:07:990894,2.053429870605469,-0.8906478881835938,0.41583526611328125,0.1297709923664122,0.03816793893129771,-0.015267175572519083
55:08:027976,2.1707858276367187,-0.4751119995117188,0.32213012695312504,0.13740458015267176,0.015267175572519083,-0.08396946564885496
55:08:072990,2.262395324707031,-0.09310638427734376,0.2616558837890625,0.015267175572519083,-0.030534351145038167,-0.04580152671755725
55:08:079300,2.2399420166015624,-0.3011737060546875,0.07993377685546875,0.08396946564885496,0.007633587786259542,-0.03816793893129771
55:08:207629,2.079176330566406,-0.41703277587890625,0.22094055175781252,-0.022900763358778626,-0.030534351145038167,-0.030534351145038167
55:08:212978,2.1513262939453126,-0.5565426635742188,0.1299298095703125,-0.03816793893129771,0.04580152671755725,-0.061068702290076333
55:08:213190,2.0710931396484376,-0.4002676391601563,0.09610015869140626,-0.03816793893129771,0.030534351145038167,-0.05343511450381679
55:08:298349,2.0809725952148437,-0.3673361206054688,-0.012573852539062501,-0.007633587786259542,0.015267175572519083,-0.04580152671755725
55:08:395902,1.9223025512695313,-0.3745211791992188,0.14699432373046875,-0.04580152671755725,0.03816793893129771,-0.05343511450381679
55:08:396051,1.6100518798828125,-0.0724493408203125,0.38589752197265625,-0.2595419847328244,0.0,-0.12213740458015267
55:08:478127,1.217867431640625,0.5029541015625,0.5613327026367188,-0.11450381679389313,-0.17557251908396945,-0.03816793893129771
55:08:523315,0.5535488891601563,1.7549505615234375,0.3906875610351563,-0.5038167938931297,-0.1984732824427481,0.3129770992366412
55:08:523524,-0.26494903564453126,2.4468118286132814,-0.202379150390625,-0.7709923664122137,-0.34351145038167935,0.7786259541984732
55:08:567775,-1.9202069091796876,3.7215609741210938,-0.27033782958984376,-0.6335877862595419,-0.9541984732824427,1.984732824427481
55:08:658496,-2.9596453857421876,3.946692810058594,-1.287322998046875,-0.8549618320610687,-1.1374045801526718,2.9923664122137406
55:08:711184,-4.015250244140625,3.419788513183594,-2.1345611572265626,-1.1221374045801527,-1.2519083969465647,3.8854961832061066
55:08:711367,-4.050277404785157,1.9297869873046876,-2.744393005371094,-1.129770992366412,-0.6946564885496183,3.8549618320610683
55:08:747492,-3.1590307617187503,0.0101788330078125,-1.8791921997070313,-0.6106870229007634,-0.33587786259541985,3.465648854961832
55:08:792655,-1.3753399658203125,-1.0756631469726563,-0.7858657836914062,-0.5038167938931297,-0.35877862595419846,2.5267175572519083
55:08:882949,0.2293231201171875,-1.4971865844726564,0.060174865722656255,-0.4809160305343511,-0.3053435114503817,1.7175572519083968
55:08:928435,1.0615924072265626,-2.3605911254882814,0.7104226684570313,-0.6641221374045801,-0.22900763358778625,0.9083969465648855
55:08:973264,1.5453863525390625,-3.247347106933594,0.7116201782226563,0.16030534351145037,-0.42748091603053434,-0.366412213740458
55:09:062643,0.4700225830078125,-3.692820739746094,0.22962249755859376,0.7022900763358778,-0.22900763358778625,-2.2213740458015265
55:09:107979,-1.3178594970703126,-4.078119506835938,-0.6152206420898437,1.3969465648854962,0.0916030534351145,-3.4198473282442747
55:09:153384,-2.300116882324219,-2.4701632690429687,-0.9499246215820313,0.6183206106870229,0.6717557251908397,-4.129770992366412
55:09:198222,-3.9275326538085937,0.7340734863281251,-1.3400134277343752,2.16030534351145,0.9770992366412213,-2.8244274809160306
55:09:288039,-2.1402493286132813,3.0228140258789065,0.30835876464843753,-1.1374045801526718,-0.5877862595419847,-1.2061068702290076
55:09:288226,0.4206253051757813,3.1922616577148437,-0.7942483520507813,0.8167938931297709,0.3511450381679389,2.114503816793893
55:09:335135,-1.2774435424804689,3.2467483520507816,-1.0127938842773438,-0.5877862595419847,0.09923664122137404,2.801526717557252
55:09:467637,-1.5235317993164064,1.9833755493164062,-0.844244384765625,-1.015267175572519,0.3053435114503817,2.6564885496183206
55:09:513527,-0.9816586303710938,-0.9714797973632813,-0.9675878906250001,-1.198473282442748,0.366412213740458,2.267175572519084
55:09:558420,-0.4628375244140625,-2.411485290527344,-0.2859054565429688,-0.9236641221374046,0.5190839694656488,1.564885496183206
55:09:647845,0.6475534057617188,-3.3218920898437503,0.32751892089843754,-0.7862595419847328,0.2595419847328244,0.732824427480916
55:09:648058,1.9588265991210938,-3.5401382446289062,0.7149133300781251,-0.282442748091603,0.3511450381679389,-0.38167938931297707
55:09:696046,1.7366885375976564,-3.5796560668945316,0.6256988525390625,0.0916030534351145,0.37404580152671757,-1.4732824427480915
55:09:738446,0.901724853515625,-2.775228881835938,-0.1574725341796875,0.48854961832061067,1.1908396946564885,-2.5801526717557253
55:09:827748,-0.6990463256835938,-1.8244061279296875,-0.09101074218750001,0.5190839694656488,1.2213740458015268,-3.2900763358778624
55:09:827914,-1.9570303344726563,-1.2534933471679688,-0.9675878906250001,0.9847328244274809,1.4198473282442747,-3.450381679389313
55:10:027861,-2.8434869384765626,0.22034179687500002,-1.445394287109375,0.6183206106870229,2.198473282442748,-3.7251908396946565
55:10:052504,-2.868035888671875,2.442321166992188,-0.36553985595703126,0.3129770992366412,2.4122137404580153,-2.618320610687023
55:10:097652,-2.694995727539063,2.748284912109375,1.7579443359375,0.9541984732824427,1.4351145038167938,-1.0305343511450382
55:10:097936,-2.60578125,1.9845730590820314,1.387913818359375,2.259541984732824,1.099236641221374,-0.9083969465648855
55:10:098067,-0.7631130981445313,4.1640408325195315,0.7011419677734375,0.5725190839694656,0.2595419847328244,-0.35877862595419846
55:10:103466,1.3448034667968751,1.4819183349609375,1.3055850219726564,0.8854961832061068,0.4961832061068702,0.6030534351145038
55:10:187916,2.2270687866210936,0.2571652221679688,1.6495697021484377,0.8549618320610687,0.33587786259541985,0.3053435114503817
55:10:188108,2.35909423828125,-0.37272491455078127,1.6163388061523438,0.549618320610687,0.1450381679389313,0.25190839694656486
55:10:279145,2.4563919067382813,-0.8655001831054688,1.21427490234375,-0.061068702290076333,0.022900763358778626,-0.015267175572519083
55:10:376249,2.365381164550781,-1.3945001220703126,1.1633807373046876,0.061068702290076333,-0.007633587786259542,-0.03816793893129771
55:10:376388,2.4174728393554688,-1.3669573974609375,1.0669812011718751,0.007633587786259542,0.022900763358778626,0.0
55:10:412831,2.532733154296875,-1.0948233032226562,0.8816665649414063,0.09923664122137404,0.05343511450381679,0.04580152671755725
55:10:568024,2.515069885253906,-0.7382647705078126,0.7870632934570313,0.061068702290076333,0.04580152671755725,0.04580152671755725
55:10:568164,2.4968078613281253,-0.6391708374023438,0.7475454711914062,-0.022900763358778626,-0.015267175572519083,0.030534351145038167
55:10:592973,2.4638763427734376,-0.7661068725585938,0.7586224365234375,-0.03816793893129771,0.022900763358778626,-0.007633587786259542
55:10:593102,2.5132736206054687,-0.748443603515625,0.7595205688476563,-0.10687022900763359,0.015267175572519083,-0.030534351145038167
55:10:748141,2.558778991699219,-0.7813751220703126,0.5969586181640625,-0.09923664122137404,0.015267175572519083,0.04580152671755725
55:10:748341,2.4204666137695314,-1.2097842407226562,0.3658392333984375,0.007633587786259542,0.015267175572519083,0.03816793893129771
55:10:818413,2.0863613891601562,-1.2579840087890626,0.5263055419921875,0.3893129770992366,-0.022900763358778626,0.07633587786259542
55:10:824197,2.2138961791992187,-0.6559359741210938,0.5930667114257813,0.23664122137404578,0.0,-0.09923664122137404
55:10:865207,2.336042175292969,-0.24129821777343752,0.51732421875,-0.07633587786259542,-0.04580152671755725,-0.1450381679389313
55:10:865369,2.4228616333007813,-0.3059637451171875,0.3454815673828125,-0.20610687022900762,-0.0916030534351145,-0.10687022900763359
55:10:907665,2.4204666137695314,-0.6268963623046875,0.15208374023437501,-0.1450381679389313,-0.030534351145038167,-0.0916030534351145
55:10:998443,2.2369482421875,-0.8649014282226563,0.2942880249023438,-0.11450381679389313,0.007633587786259542,-0.061068702290076333
55:11:087814,2.21539306640625,-0.7999365234375,0.23381378173828127,0.03816793893129771,0.030534351145038167,-0.04580152671755725
55:11:087984,2.1809646606445314,-0.49187713623046875,0.16795074462890625,0.030534351145038167,0.022900763358778626,-0.022900763358778626
55:11:138512,2.1543200683593753,-0.44697052001953125,0.17633331298828125,0.030534351145038167,0.03816793893129771,-0.04580152671755725
55:11:177599,1.9582278442382814,-0.48678771972656254,0.28650421142578125,-0.022900763358778626,-0.007633587786259542,-0.06870229007633588
55:11:222552,1.7537530517578126,-0.0161663818359375,0.34099090576171875,-0.2900763358778626,-0.015267175572519083,-0.0916030534351145
55:11:267859,1.4112652587890626,0.6792874145507812,0.4819976806640625,-0.5267175572519084,-0.183206106870229,-0.10687022900763359
55:11:312520,0.6954537963867188,1.8576370239257813,0.8340655517578125,-0.7786259541984732,-0.564885496183206,0.4427480916030534
55:11:403026,-0.5035528564453126,2.1633013916015624,0.3882925415039063,-0.20610687022900762,-1.198473282442748,1.7175572519083968
55:11:447865,-1.129251708984375,2.8698321533203126,-0.1886077880859375,0.0916030534351145,-0.8091603053435115,2.16793893129771
55:11:453289,-2.152823181152344,3.4590069580078127,-0.6891668701171876,0.05343511450381679,-0.6030534351145038,3.068702290076336
55:11:537790,-2.504891052246094,2.93389892578125,-0.9496252441406251,-0.12213740458015267,-0.1984732824427481,3.2671755725190836
55:11:582678,-2.3345452880859376,1.916015625,-1.4373110961914064,-0.26717557251908397,0.24427480916030533,3.183206106870229
55:11:627475,-2.151925048828125,1.1822415161132813,-1.2055929565429688,-0.5419847328244275,0.648854961832061,2.931297709923664
55:11:718299,-1.2331356811523437,0.0814306640625,-0.48648834228515625,-0.6793893129770993,0.6183206106870229,2.465648854961832
55:11:808072,-0.279019775390625,-0.6792874145507812,0.34278717041015627,-0.7480916030534351,0.10687022900763359,2.0381679389312977
55:11:808332,0.9110055541992188,-1.6804055786132814,0.7864645385742188,-0.5343511450381679,-0.061068702290076333,1.3511450381679388
55:11:860738,1.5271243286132814,-2.834206237792969,1.3016931152343751,-0.3053435114503817,-0.21374045801526717,0.42748091603053434
55:11:860960,1.4681469726562502,-3.41769287109375,1.3031900024414063,-0.061068702290076333,-0.45038167938931295,-0.5877862595419847
55:11:942883,0.6170169067382812,-3.727548522949219,0.4340972900390625,0.6870229007633587,-0.17557251908396945,-2.267175572519084
55:11:987658,-1.2546908569335937,-4.320016479492188,-0.6652166748046875,1.297709923664122,0.0916030534351145,-3.595419847328244
55:12:170189,-2.678529968261719,-2.717149658203125,-1.4780264282226563,1.1603053435114503,0.8015267175572519,-4.022900763358779
55:12:170334,-4.07871826171875,0.8178991699218751,-2.027384033203125,1.015267175572519,0.1984732824427481,-2.236641221374046
55:12:212588,-0.8852590942382813,3.071612548828125,0.43768981933593754,0.34351145038167935,-1.0,0.5038167938931297
55:12:212750,1.2283456420898438,3.1737002563476566,-1.1732601928710937,-0.04580152671755725,0.5190839694656488,1.6259541984732824
55:12:212857,0.07873626708984376,3.3248858642578125,-0.36404296875000003,-0.3511450381679389,0.4809160305343511,1.9770992366412212
55:12:347845,-0.33560211181640626,1.7262103271484377,0.2847079467773438,-0.9541984732824427,0.16793893129770993,2.16793893129771
55:12:367288,-0.09041198730468751,-0.228724365234375,0.44307861328125003,-0.8244274809160305,0.05343511450381679,2.0763358778625953
55:12:367474,0.209564208984375,-1.7238153076171876,0.4930746459960938,-0.9847328244274809,0.22900763358778625,1.4885496183206106
55:12:392690,0.7442523193359375,-2.7318191528320312,0.9244775390625001,-0.6946564885496183,-0.08396946564885496,0.6259541984732824
55:12:482491,1.8342855834960938,-3.187471618652344,0.6251000976562501,-0.15267175572519084,-0.04580152671755725,-0.1984732824427481
55:12:530249,2.053729248046875,-3.2183074951171875,0.32811767578125,-0.24427480916030533,0.41221374045801523,-1.4961832061068703
55:12:625941,1.2627740478515626,-2.9330007934570315,0.42810974121093753,-0.15267175572519084,0.83206106870229,-2.564885496183206
55:12:707912,-0.4796026611328125,-2.1630020141601562,-0.19190093994140625,0.47328244274809156,1.213740458015267,-3.3893129770992365
55:12:708095,-1.962718505859375,-1.1702664184570313,-0.6143225097656251,0.7709923664122137,1.4885496183206106,-3.541984732824427
55:12:798721,-2.279459838867188,0.14160552978515625,-1.0651849365234376,0.20610687022900762,1.9770992366412212,-3.610687022900763
55:12:887502,-2.3809487915039065,1.2073892211914063,0.5325924682617188,0.6106870229007634,2.2061068702290076,-2.541984732824427
55:12:892850,-2.557581481933594,2.8551626586914063,1.839375,0.08396946564885496,1.7862595419847327,-1.6717557251908397
55:12:892991,-2.0085232543945315,2.1043240356445314,1.6450790405273439,1.6259541984732824,0.8015267175572519,-0.0916030534351145
55:12:932459,-0.6867718505859375,2.476150817871094,1.663341064453125,2.015267175572519,0.9236641221374046,0.1984732824427481
55:12:977408,1.2355307006835938,1.88009033203125,1.6363970947265625,0.9770992366412213,0.0916030534351145,0.5419847328244275
55:13:157912,2.078876953125,-0.31763946533203125,1.7522561645507813,0.2748091603053435,-0.10687022900763359,0.06870229007633588
55:13:176399,2.424657897949219,-0.9334588623046876,1.603465576171875,-0.1297709923664122,0.015267175572519083,-0.04580152671755725
55:13:248684,2.5866210937500003,-0.9918374633789063,0.8538244628906251,0.007633587786259542,0.12213740458015267,0.03816793893129771
55:13:255143,2.5435107421875003,-1.1451187133789062,0.8780740356445313,0.07633587786259542,0.05343511450381679,0.03816793893129771
55:13:292538,2.489323425292969,-1.1178753662109375,0.8430468750000001,0.1984732824427481,0.022900763358778626,0.11450381679389313
55:13:337485,2.465672607421875,-0.7532336425781251,0.9283694458007813,0.22900763358778625,0.08396946564885496,0.11450381679389313
55:13:343329,2.3444247436523438,-0.6409671020507813,0.9373507690429688,0.03816793893129771,-0.030534351145038167,0.05343511450381679
55:13:383321,2.3079006958007815,-0.7343728637695313,0.7649093627929688,-0.061068702290076333,-0.030534351145038167,-0.022900763358778626
55:13:472555,2.4303460693359376,-0.8122109985351563,0.7640112304687501,-0.09923664122137404,-0.07633587786259542,-0.03816793893129771
55:13:472692,2.5692572021484374,-0.8253836059570313,0.6397695922851563,-0.09923664122137404,0.03816793893129771,-0.061068702290076333
55:13:517529,2.432142333984375,-0.9993218994140626,0.5044509887695313,-0.0916030534351145,-0.03816793893129771,-0.08396946564885496
55:13:652683,2.204615478515625,-1.3010943603515626,0.564027099609375,0.16793893129770993,0.007633587786259542,0.0
55:13:672183,2.2635928344726564,-0.9867480468750001,0.525706787109375,0.2595419847328244,0.03816793893129771,-0.05343511450381679
55:13:672342,2.3632855224609375,-0.3266207885742188,0.45744873046875,0.08396946564885496,0.0,-0.061068702290076333
55:13:700528,2.3701712036132814,-0.1778302001953125,0.389190673828125,-0.030534351145038167,-0.03816793893129771,-0.061068702290076333
55:13:841091,2.319277038574219,-0.39038818359375,0.3502716064453125,-0.15267175572519084,-0.022900763358778626,-0.061068702290076333
55:13:967936,2.207010498046875,-0.7238946533203126,0.3320095825195313,-0.17557251908396945,0.007633587786259542,-0.061068702290076333
55:13:968108,2.203118591308594,-0.7831713867187501,0.23650817871093752,-0.05343511450381679,0.030534351145038167,-0.022900763358778626
55:13:968213,2.190245361328125,-0.5289999389648438,0.23680755615234375,0.015267175572519083,0.05343511450381679,-0.03816793893129771
55:14:012828,2.0264859008789062,-0.314945068359375,0.25656646728515625,-0.09923664122137404,-0.022900763358778626,-0.07633587786259542
55:14:057735,1.8354830932617188,-0.13501922607421876,0.34518218994140626,-0.2900763358778626,-0.03816793893129771,-0.13740458015267176
55:14:148484,1.41066650390625,0.59396484375,0.5032534790039063,-0.5801526717557252,0.022900763358778626,-0.11450381679389313
55:14:148680,0.49786468505859377,1.5567626953125,0.8870553588867188,-0.7404580152671756,-0.37404580152671757,0.34351145038167935
55:14:154374,-0.47750701904296877,2.2168899536132813,0.34787658691406254,-0.3511450381679389,-0.8091603053435115,1.0687022900763359
55:14:195427,-1.7995578002929689,3.296744384765625,-0.0101788330078125,-0.16793893129770993,-1.083969465648855,2.2748091603053435
55:14:237472,-2.607876892089844,3.2754885864257814,-0.8888516235351563,-0.3893129770992366,-1.0534351145038168,3.145038167938931
55:14:372989,-2.898871765136719,2.480940856933594,-1.6522640991210937,-0.6335877862595419,-0.6717557251908397,3.480916030534351
55:14:419841,-3.014730834960938,2.080074462890625,-2.288740539550781,-1.1374045801526718,-0.23664122137404578,3.427480916030534
55:14:462772,-2.41178466796875,1.0053094482421876,-1.5250286865234375,-0.7709923664122137,0.03816793893129771,3.1908396946564883
55:14:507617,-1.2175680541992189,-0.29069549560546876,-0.3565585327148438,-0.5725190839694656,-0.19083969465648853,2.633587786259542
55:14:507755,0.243094482421875,-1.1223660278320313,0.4305047607421875,-0.21374045801526717,-0.15267175572519084,1.9541984732824427
55:14:597551,1.0424322509765624,-2.0216958618164065,1.0235714721679687,-0.3511450381679389,-0.29770992366412213,1.2748091603053435
55:14:642843,1.6420852661132814,-3.2096255493164065,1.1660751342773439,-0.09923664122137404,-0.3053435114503817,0.05343511450381679
55:14:822883,1.1693682861328125,-3.564687194824219,0.9816586303710938,0.4351145038167939,-0.46564885496183206,-1.1374045801526718
55:14:823053,-0.046403503417968756,-3.800596618652344,0.25387207031250003,0.9923664122137404,-0.38167938931297707,-2.297709923664122
55:14:867808,-0.9960287475585938,-2.7731332397460937,-0.2233355712890625,0.4580152671755725,-0.16793893129770993,-3.4198473282442747
55:14:913141,-1.2448114013671876,-2.2573059082031253,-0.6966513061523438,0.4580152671755725,0.8549618320610687,-3.8091603053435112
55:14:913336,-3.2695010375976565,0.192799072265625,0.494571533203125,1.580152671755725,0.7175572519083969,-2.9236641221374047
55:14:918997,-2.3896307373046874,2.6839187622070315,0.6164181518554688,-0.6641221374045801,-0.2595419847328244,-1.2061068702290076
55:14:960490,1.1136840820312501,2.9626391601562503,-0.4981640625,1.0687022900763359,0.282442748091603,1.9618320610687021
55:15:064557,0.3224295043945313,3.0455667114257814,-0.9517208862304688,-0.5343511450381679,0.6870229007633587,1.6106870229007633
55:15:137715,-0.4793032836914063,2.059716796875,-0.7370672607421875,-0.5801526717557252,0.7557251908396946,1.8931297709923662
55:15:137948,-0.513731689453125,0.5745053100585937,0.082628173828125,-0.7938931297709924,0.45038167938931295,2.045801526717557
55:15:182663,-0.1251397705078125,-0.9930349731445313,0.12843292236328124,-1.282442748091603,0.5343511450381679,1.618320610687023
55:15:273006,-0.2628533935546875,-2.126178588867188,0.5487588500976562,-1.465648854961832,-0.1984732824427481,1.099236641221374
55:15:362634,1.0903326416015626,-3.2692016601562504,0.45146118164062504,-0.6641221374045801,-0.21374045801526717,0.366412213740458
55:15:362797,1.823507995605469,-3.6479141235351564,0.20746856689453125,-0.4427480916030534,0.15267175572519084,-1.1374045801526718
55:15:407521,0.95561279296875,-3.9781274414062504,0.3263214111328125,0.007633587786259542,0.7862595419847328,-2.8625954198473282
55:15:412874,-1.1035052490234376,-3.0120364379882814,0.0688568115234375,0.564885496183206,1.129770992366412,-3.778625954198473
55:15:452425,-2.6680517578125,-1.5681390380859377,-0.7319778442382813,1.6717557251908397,1.6946564885496183,-3.778625954198473
55:15:543366,-2.630928955078125,0.8882528686523438,-0.948427734375,0.282442748091603,1.580152671755725,-3.633587786259542
55:15:587583,-2.108515319824219,2.62733642578125,-0.24339385986328127,-0.3969465648854962,2.4427480916030535,-2.633587786259542
55:15:587754,-1.6462765502929688,2.6728417968750002,2.401007080078125,0.5954198473282443,1.1221374045801527,-0.8931297709923663
55:15:767773,-0.4655319213867188,1.1552975463867188,0.9798623657226563,1.297709923664122,0.47328244274809156,0.08396946564885496
55:15:783329,-0.23860382080078127,0.9930349731445313,0.621507568359375,1.1908396946564885,0.9236641221374046,-0.47328244274809156
55:15:783588,0.43739044189453125,2.635419616699219,1.3415103149414063,1.4427480916030533,0.3511450381679389,0.47328244274809156
55:15:857482,1.4510824584960937,-0.35206787109375004,2.1779708862304688,1.0381679389312977,-0.1297709923664122,0.6106870229007634
55:15:947504,2.485132141113281,-0.7095245361328125,1.7076489257812502,-0.3053435114503817,0.05343511450381679,-0.16793893129770993
55:15:947733,2.728226623535156,-0.6858737182617188,0.9107061767578125,0.06870229007633588,0.06870229007633588,0.06870229007633588
55:15:992672,2.5704547119140626,-0.9319619750976563,1.0367440795898437,-0.08396946564885496,-0.03816793893129771,-0.022900763358778626
55:16:037620,2.498304748535156,-0.9651928710937501,0.9580078125,-0.04580152671755725,-0.04580152671755725,0.04580152671755725
55:16:173221,2.5147705078125,-0.9163943481445312,0.8678952026367188,0.015267175572519083,0.022900763358778626,0.05343511450381679
55:16:191241,2.515069885253906,-0.8439450073242188,0.8193960571289063,-0.03816793893129771,0.0,0.04580152671755725
55:16:191408,2.5102798461914064,-0.7203021240234375,0.7837701416015626,0.007633587786259542,0.022900763358778626,0.04580152671755725
55:16:217644,2.5051904296875,-0.7250921630859375,0.7625143432617187,-0.061068702290076333,-0.007633587786259542,-0.015267175572519083
55:16:352493,2.57464599609375,-0.5586383056640625,0.7789801025390626,-0.13740458015267176,0.03816793893129771,0.0
55:16:397686,2.436632995605469,-0.71611083984375,0.523311767578125,-0.1297709923664122,-0.05343511450381679,0.03816793893129771
55:16:442534,2.1270767211914063,-1.3166619873046876,0.4454736328125,0.23664122137404578,-0.06870229007633588,0.07633587786259542
55:16:442697,2.2573059082031253,-1.0606942749023438,0.6029461669921875,0.29770992366412213,0.05343511450381679,-0.007633587786259542
55:16:490963,2.4028033447265624,-0.3215313720703125,0.49786468505859377,0.15267175572519084,0.0,-0.007633587786259542
55:16:577738,2.3977139282226565,-0.21225860595703125,0.4736151123046875,0.0,-0.03816793893129771,-0.022900763358778626
55:16:577898,2.334844665527344,-0.4278103637695313,0.35685791015625,-0.07633587786259542,-0.04580152671755725,-0.05343511450381679
55:16:757788,2.2342538452148437,-0.5930667114257813,0.36434234619140626,-0.13740458015267176,-0.007633587786259542,-0.0916030534351145
55:16:805221,2.132465515136719,-0.6370751953125,0.35745666503906254,-0.15267175572519084,0.030534351145038167,-0.07633587786259542
55:16:848618,2.1444406127929687,-0.47331573486328127,0.25147705078125,-0.15267175572519084,-0.030534351145038167,-0.06870229007633588
55:16:848843,2.109712829589844,-0.41194335937500004,0.16106506347656252,-0.12213740458015267,-0.03816793893129771,-0.06870229007633588
55:16:945693,2.0300784301757813,-0.27692413330078125,0.12663665771484375,-0.0916030534351145,-0.022900763358778626,-0.061068702290076333
55:16:945854,1.806742858886719,0.22183868408203125,0.37661682128906254,-0.22900763358778625,-0.11450381679389313,0.0
55:16:982819,1.3070819091796875,0.8675958251953125,0.6146218872070313,-0.21374045801526717,-0.19083969465648853,0.29770992366412213
55:17:117619,1.1307485961914063,1.0702743530273438,0.2625540161132813,-0.32061068702290074,-0.0916030534351145,0.37404580152671757
55:17:117792,0.3308120727539063,2.3249652099609377,0.5613327026367188,-0.6412213740458015,-0.37404580152671757,0.83206106870229
55:17:175589,-0.6972500610351563,2.5991949462890624,0.15567626953125,-0.41221374045801523,-0.8549618320610687,1.6870229007633588
55:17:175760,-1.8747015380859375,3.3856594848632815,-0.8999285888671875,-0.6564885496183206,-0.83206106870229,2.404580152671756
55:17:175884,-2.4135809326171875,3.1548394775390625,-1.3382171630859376,-0.9083969465648855,-0.7709923664122137,2.7938931297709924
55:17:207704,-2.7258316040039063,2.4144790649414065,-1.5426919555664063,-1.2366412213740459,-0.8167938931297709,3.1068702290076335
55:17:388324,-1.8519488525390626,0.9583071899414063,-1.2124786376953125,-0.7709923664122137,-0.5190839694656488,2.931297709923664
55:17:433233,-0.7679031372070313,0.3511697387695313,-0.5140310668945313,-0.564885496183206,-0.3282442748091603,2.5572519083969465
55:17:531262,0.26195526123046875,-0.23022125244140626,0.16076568603515626,-0.4961832061068702,-0.3893129770992366,2.068702290076336
55:17:531399,1.009500732421875,-1.0050100708007812,0.7846682739257813,-0.4198473282442748,-0.42748091603053434,1.5877862595419847
55:17:567903,1.3169613647460938,-2.4267535400390625,1.0744656372070314,-0.37404580152671757,-0.5038167938931297,0.9007633587786259
55:17:612768,1.7283059692382814,-3.0991552734375003,0.4751119995117188,0.07633587786259542,-0.2900763358778626,-0.8244274809160305
55:17:612936,0.32063323974609376,-3.5982174682617187,-0.01466949462890625,1.1374045801526718,0.03816793893129771,-2.5725190839694654
55:17:618126,-1.5127542114257813,-3.453318786621094,-0.7418572998046875,1.5038167938931297,0.40458015267175573,-3.564885496183206
55:17:702574,-3.2590228271484376,-2.0941452026367187,-0.6765930175781251,1.0381679389312977,0.5190839694656488,-3.687022900763359
55:17:748023,-4.401147766113281,0.9741741943359375,-2.126178588867188,0.7633587786259541,0.16030534351145037,-2.297709923664122
55:17:793423,-0.8735833740234376,3.0629306030273438,0.5475613403320313,0.7404580152671756,-0.8091603053435115,0.8778625954198473
55:17:840760,1.2289443969726563,3.0252090454101563,-0.06855743408203126,0.4198473282442748,0.23664122137404578,1.6106870229007633
55:17:927545,0.31943572998046876,3.2745904541015625,-0.3242257690429688,-0.47328244274809156,0.32061068702290074,1.9618320610687021
55:17:927703,0.1676513671875,2.1680914306640626,0.2924917602539063,-0.7251908396946565,0.41221374045801523,2.099236641221374
55:17:972536,-0.1981878662109375,0.07574249267578126,0.41852966308593753,-1.1526717557251909,0.16030534351145037,1.9541984732824427
55:18:107627,-0.13322296142578124,-1.1472143554687502,0.3990701293945313,-1.015267175572519,0.26717557251908397,1.549618320610687
55:18:152568,0.37122802734375004,-1.8091378784179688,0.7346722412109375,-0.9083969465648855,-0.06870229007633588,0.8931297709923663
55:18:152733,1.4388079833984375,-2.496508483886719,0.4700225830078125,-0.47328244274809156,-0.030534351145038167,0.1297709923664122
55:18:152847,2.2243743896484376,-2.908152465820313,0.03382965087890625,-0.5877862595419847,0.6564885496183206,-0.9541984732824427
55:18:198424,1.6280145263671877,-3.3620086669921876,0.32811767578125,-0.6335877862595419,1.1908396946564885,-2.1221374045801524
55:18:332685,-0.032931518554687504,-2.4998016357421875,0.21794677734375,0.4427480916030534,1.748091603053435,-3.145038167938931
55:18:377590,-1.9570303344726563,-0.7966433715820312,-0.31255004882812504,1.0305343511450382,1.9236641221374045,-3.3664122137404577
55:18:377758,-2.086960144042969,0.39128631591796875,-0.4981640625,0.549618320610687,2.4198473282442747,-3.3358778625954195
55:18:422869,-1.944755859375,2.0510348510742187,0.39667510986328125,0.23664122137404578,2.549618320610687,-2.5725190839694654
55:18:512701,-1.8923648071289063,2.5728497314453125,1.7193246459960938,1.045801526717557,1.9083969465648853,-1.3358778625954197
55:18:557612,-1.122964782714844,1.7498611450195314,1.5163467407226563,1.5572519083969465,0.9465648854961831,-0.3893129770992366
55:18:602976,-0.7349716186523438,1.5145504760742188,1.32205078125,1.450381679389313,0.7404580152671756,-0.6259541984732824
55:18:758650,0.6221063232421875,2.036065979003906,0.7831713867187501,0.7709923664122137,0.3893129770992366,-0.1450381679389313
55:18:758823,1.4388079833984375,0.8936416625976563,1.4843133544921876,1.4732824427480915,0.37404580152671757,0.5267175572519084
55:18:873333,1.9971469116210938,-0.05987548828125,1.9953506469726563,0.5419847328244275,-0.08396946564885496,0.04580152671755725
55:18:873490,2.4815396118164066,-0.5783972167968751,1.4456936645507814,-0.2595419847328244,-0.07633587786259542,-0.13740458015267176
55:18:873602,2.6234445190429687,-0.8307723999023438,1.054706726074219,0.007633587786259542,0.11450381679389313,0.03816793893129771
55:18:917687,2.5653652954101562,-1.0301577758789062,0.9900411987304688,-0.0916030534351145,-0.05343511450381679,0.0
55:18:917854,2.5970993041992188,-1.0906320190429688,0.9268725585937501,0.16793893129770993,0.05343511450381679,0.030534351145038167
55:19:008352,2.480940856933594,-0.7577243041992188,0.980760498046875,0.06870229007633588,0.030534351145038167,0.08396946564885496
55:19:053362,2.4626788330078124,-0.8104147338867188,0.8876541137695313,0.05343511450381679,0.015267175572519083,0.04580152671755725
55:19:142662,2.441423034667969,-0.6918612670898437,0.8813671875000001,0.022900763358778626,-0.007633587786259542,0.030534351145038167
55:19:142851,2.485730895996094,-0.661025390625,0.8412506103515626,-0.09923664122137404,-0.007633587786259542,-0.04580152671755725
55:19:190566,2.539618835449219,-0.5870791625976562,0.7385641479492188,-0.2900763358778626,-0.030534351145038167,-0.03816793893129771
55:19:387638,2.4746539306640627,-1.2564871215820312,0.4041595458984375,-0.007633587786259542,-0.06870229007633588,0.0
55:19:387827,2.3114932250976565,-1.2756472778320314,0.6924600219726563,0.29770992366412213,0.030534351145038167,0.007633587786259542
55:19:414949,2.4111859130859377,-0.7071295166015625,0.5499563598632813,0.23664122137404578,0.05343511450381679,-0.07633587786259542
55:19:415109,2.355202331542969,-0.07544311523437501,0.5158273315429688,0.16030534351145037,0.08396946564885496,-0.04580152671755725
55:19:638487,2.336341552734375,-0.08292755126953126,0.46104125976562504,-0.09923664122137404,-0.10687022900763359,-0.007633587786259542
55:19:638656,2.3474185180664064,-0.5568420410156251,0.39996826171875,-0.05343511450381679,-0.022900763358778626,-0.061068702290076333
55:19:653109,2.3102957153320314,-0.7553292846679688,0.41703277587890625,-0.183206106870229,-0.007633587786259542,-0.09923664122137404
55:19:727564,2.298919372558594,-0.5795947265625,0.27303222656250004,-0.061068702290076333,0.06870229007633588,-0.07633587786259542
55:19:727816,2.2776635742187503,-0.4640350341796875,0.2347119140625,-0.0916030534351145,-0.030534351145038167,-0.05343511450381679
55:19:727970,2.1980291748046876,-0.592767333984375,0.19160156250000002,0.0,0.0,-0.04580152671755725
55:19:772618,2.1411474609375003,-0.552052001953125,0.27393035888671874,0.030534351145038167,0.0,-0.03816793893129771
55:19:908304,2.0151095581054688,-0.140108642578125,0.389190673828125,-0.20610687022900762,0.015267175572519083,-0.12213740458015267
55:19:908466,1.6750167846679689,0.3972738647460938,0.39248382568359375,-0.6564885496183206,0.0,-0.37404580152671757
55:19:953243,1.0906320190429688,1.3421090698242188,0.6577322387695312,-1.4122137404580153,0.19083969465648853,-0.6641221374045801
55:19:953409,-0.32751892089843754,2.462080078125,1.4025833129882814,-1.4580152671755724,0.007633587786259542,-0.366412213740458
55:19:997689,-2.309098205566406,3.3284783935546876,1.588796081542969,-0.6106870229007634,-1.9236641221374045,1.2061068702290076
55:20:003031,-3.04406982421875,3.210523681640625,-0.29907806396484377,-0.21374045801526717,-2.2442748091603053,2.3740458015267176
55:20:088028,-3.62366455078125,3.536246337890625,-1.615440673828125,-0.7862595419847328,-2.1297709923664123,3.129770992366412
55:20:132840,-3.8245468139648438,3.049757995605469,-2.4755520629882812,-1.129770992366412,-1.900763358778626,3.4732824427480913
55:20:138165,-3.4853521728515626,2.4037014770507814,-2.5372238159179688,-1.1832061068702289,-1.4045801526717556,3.3435114503816794
55:20:283361,-2.60817626953125,0.5236111450195313,-1.5977774047851563,-0.5343511450381679,-1.0229007633587786,3.0763358778625953
55:20:362736,-1.08015380859375,-1.00830322265625,-0.8376580810546875,-0.3282442748091603,-0.7557251908396946,2.3435114503816794
55:20:362971,0.44038421630859376,-2.7162515258789064,-0.02784210205078125,-0.3129770992366412,-0.4580152671755725,1.297709923664122
55:20:402771,1.0283615112304687,-3.2096255493164065,0.5284011840820313,-0.10687022900763359,-0.6335877862595419,-0.3053435114503817
55:20:408534,0.28949798583984376,-3.5578015136718752,-0.6879693603515625,1.2900763358778626,-0.26717557251908397,-2.5572519083969465
55:20:493499,-2.3345452880859376,-3.6179763793945314,-1.4630575561523438,1.8625954198473282,0.17557251908396945,-3.7175572519083966
55:20:540288,-3.1425650024414065,-1.8157241821289063,-1.028660888671875,0.7251908396946565,0.648854961832061,-3.9389312977099236
55:20:540450,-4.143683166503907,1.6151412963867189,-1.691781921386719,0.732824427480916,0.1984732824427481,-1.2442748091603053
55:20:582535,-0.1682501220703125,3.2985406494140626,0.7960446166992188,0.6793893129770993,-0.37404580152671757,0.8396946564885496
55:20:762803,0.4966671752929688,3.2332763671875,0.0916094970703125,-0.17557251908396945,-0.061068702290076333,2.3587786259541983
55:20:807814,-0.22543121337890626,3.0829888916015626,-0.506546630859375,-0.5572519083969465,0.23664122137404578,2.450381679389313
55:20:807952,-0.8086184692382813,0.9271719360351564,-0.2939886474609375,-1.045801526717557,0.2213740458015267,2.4351145038167936
55:20:897531,-0.5825885009765626,-1.1936178588867188,-0.5996530151367188,-0.7938931297709924,0.5038167938931297,2.0610687022900764
55:20:987707,-0.21794677734375,-2.4899221801757814,-0.04580474853515625,-0.732824427480916,0.41221374045801523,1.297709923664122
55:20:987931,0.9607022094726563,-3.1198123168945315,0.41463775634765626,-0.6717557251908397,0.4427480916030534,0.5190839694656488
55:21:032765,1.5525714111328126,-3.27399169921875,0.8816665649414063,-0.47328244274809156,0.564885496183206,-0.6030534351145038
55:21:033018,0.9942324829101563,-3.3284783935546876,0.689765625,0.061068702290076333,0.4351145038167939,-1.9236641221374045
55:21:213225,-0.5568420410156251,-1.9576290893554689,-0.20746856689453125,0.9847328244274809,0.8931297709923663,-3.1374045801526718
55:21:213386,-1.875000915527344,-0.4592449951171875,-0.5921685791015625,0.4198473282442748,1.4351145038167938,-3.6946564885496183
55:21:257668,-2.3462210083007813,-0.16914825439453127,-0.5562432861328125,-0.030534351145038167,2.0534351145038165,-3.763358778625954
55:21:304013,-2.907254333496094,0.7996371459960938,-0.27842102050781253,-0.007633587786259542,2.931297709923664,-3.1221374045801524
55:21:304171,-2.841690673828125,1.8926641845703125,1.3181588745117188,0.183206106870229,3.030534351145038,-2.33587786259542
55:21:309422,-2.775528259277344,2.2842498779296876,2.228565673828125,1.0916030534351144,1.564885496183206,-0.9083969465648855
55:21:392591,-2.522853698730469,2.3031106567382813,1.6735198974609375,1.66412213740458,1.4427480916030533,-0.47328244274809156
55:21:528578,-0.999920654296875,3.4551150512695314,1.948348388671875,1.5954198473282442,0.9389312977099237,-0.007633587786259542
55:21:617879,1.1852352905273438,1.9941531372070314,1.8516494750976564,1.5419847328244274,0.2595419847328244,1.2290076335877862
55:21:618073,2.2561083984375,-0.46882507324218753,2.039658508300781,0.7633587786259541,0.183206106870229,0.15267175572519084
55:21:623684,2.378553771972656,-0.27991790771484376,1.610351257324219,-0.3511450381679389,-0.10687022900763359,-0.0916030534351145
55:21:623905,2.4731570434570314,-0.6750961303710938,0.9286688232421876,-0.09923664122137404,-0.007633587786259542,0.05343511450381679
55:21:662794,2.5767416381835937,-0.8496331787109376,0.8131091308593751,-0.07633587786259542,0.015267175572519083,-0.007633587786259542
55:21:753069,2.6099725341796876,-0.901724853515625,0.8478369140625001,0.04580152671755725,0.0,0.007633587786259542
55:21:758552,2.536026306152344,-0.6104306030273438,0.827479248046875,0.21374045801526717,0.07633587786259542,0.12213740458015267
55:21:797564,2.472558288574219,-0.3948788452148438,0.8328680419921876,0.0916030534351145,0.030534351145038167,0.11450381679389313
55:21:842783,2.4507037353515626,-0.43739044189453125,0.6966513061523438,-0.015267175572519083,-0.030534351145038167,0.061068702290076333
55:21:890107,2.439327392578125,-0.499361572265625,0.6397695922851563,0.015267175572519083,0.0,0.04580152671755725
55:21:932549,2.38304443359375,-0.47900390625,0.64905029296875,-0.07633587786259542,-0.022900763358778626,0.0
55:22:022873,2.436632995605469,-0.42391845703125003,0.5155279541015625,-0.1984732824427481,-0.007633587786259542,-0.015267175572519083
55:22:067794,2.334844665527344,-0.839454345703125,0.3170407104492188,-0.03816793893129771,-0.015267175572519083,-0.022900763358778626
55:22:158977,2.2848486328125,-0.963995361328125,0.4673281860351563,0.22900763358778625,0.015267175572519083,0.015267175572519083
55:22:247509,2.33993408203125,-0.5373825073242188,0.437091064453125,0.26717557251908397,0.08396946564885496,-0.015267175572519083
55:22:247643,2.304906921386719,-0.06466552734375,0.4002676391601563,0.12213740458015267,0.03816793893129771,-0.022900763358778626
55:22:292705,2.3070025634765625,0.008382568359375,0.28351043701171874,-0.030534351145038167,-0.030534351145038167,-0.030534351145038167
55:22:298287,2.2135968017578125,-0.19040405273437502,0.195194091796875,-0.07633587786259542,-0.04580152671755725,-0.08396946564885496
55:22:383047,2.180365905761719,-0.39428009033203126,0.2472857666015625,-0.16030534351145037,0.0,-0.0916030534351145
55:22:427995,2.241438903808594,-0.4451742553710938,0.149688720703125,-0.06870229007633588,0.05343511450381679,-0.07633587786259542
55:22:473355,2.23934326171875,-0.3251239013671875,0.08053253173828126,-0.03816793893129771,0.022900763358778626,-0.05343511450381679
55:22:652530,2.145638122558594,-0.2424957275390625,0.099393310546875,-0.015267175572519083,0.03816793893129771,-0.061068702290076333
55:22:697710,1.9872674560546877,-0.12214599609375,0.14340179443359377,-0.11450381679389313,0.05343511450381679,-0.10687022900763359
55:22:697891,1.6414865112304688,0.34518218994140626,0.40894958496093753,-0.47328244274809156,0.12213740458015267,-0.29770992366412213
55:22:743286,0.6427633666992187,1.3301339721679688,0.8173004150390626,-0.40458015267175573,0.015267175572519083,-0.16793893129770993
55:22:748981,0.0293389892578125,2.049238586425781,0.7008425903320313,-0.6412213740458015,-0.5190839694656488,0.40458015267175573
55:22:749079,-0.9978250122070313,2.7099645996093753,0.188009033203125,-0.5343511450381679,-0.9007633587786259,1.1755725190839694
55:22:877840,-2.2614971923828127,3.0817913818359375,-0.7556286621093751,-0.5267175572519084,-1.5419847328244274,2.32824427480916
55:22:922767,-3.2910562133789063,2.904859313964844,-1.8139279174804688,-0.7251908396946565,-1.6259541984732824,3.045801526717557
55:22:968644,-3.9439984130859376,2.532134399414063,-2.4141796875000003,-1.3129770992366412,-1.5877862595419847,3.5038167938931295
55:22:975048,-3.8607714843750003,1.232237548828125,-2.0243902587890625,-1.0229007633587786,-1.4809160305343512,3.6412213740458013
55:23:057454,-2.1315673828125,-0.32332763671875003,-1.1094927978515625,-0.13740458015267176,-0.7862595419847328,3.312977099236641
55:23:111100,-0.18890716552734377,-1.054706726074219,-0.1167572021484375,-0.22900763358778625,-0.47328244274809156,2.282442748091603
55:23:147728,1.031055908203125,-1.6504678344726564,0.49906219482421876,-0.33587786259541985,-0.3129770992366412,1.4274809160305344
55:23:327774,1.5328125000000001,-2.9054580688476563,0.6810836791992188,-0.06870229007633588,-0.40458015267175573,0.46564885496183206
55:23:327908,1.6822018432617187,-3.3461416625976566,0.2556683349609375,0.25190839694656486,-0.2213740458015267,-1.0
55:23:372695,0.47601013183593754,-3.803291015625,-0.43349853515625003,1.1526717557251909,0.34351145038167935,-2.5572519083969465
55:23:426335,-1.0553054809570312,-3.150648193359375,-0.97716796875,1.2061068702290076,0.5114503816793893,-3.2748091603053435
55:23:426538,-1.9249969482421876,-2.2707778930664064,-1.0109976196289063,0.9923664122137404,1.015267175572519,-3.7022900763358777
55:23:516135,-3.729644165039063,0.5948629760742188,-1.6160394287109376,3.2748091603053435,0.5725190839694656,-1.0687022900763359
55:23:516316,-0.06735992431640625,2.831811218261719,-1.3184582519531252,-1.114503816793893,-0.3893129770992366,-0.03816793893129771
55:23:598261,0.7720944213867188,3.014132080078125,-0.756826171875,0.183206106870229,0.5572519083969465,1.6412213740458015
55:23:643239,-0.3658392333984375,2.582729187011719,-0.7631130981445313,-0.45038167938931295,0.13740458015267176,2.3053435114503817
55:23:688354,-0.1442999267578125,0.9011260986328126,-0.4140390014648438,-1.1832061068702289,0.38167938931297707,1.9389312977099236
55:23:688496,-0.19728973388671875,-0.48559020996093755,0.0568817138671875,-1.4809160305343512,-0.007633587786259542,1.9236641221374045
55:23:693737,0.45385620117187503,-1.9258950805664063,0.0401165771484375,-1.083969465648855,0.09923664122137404,1.381679389312977
55:23:732844,1.144519958496094,-2.2471270751953125,0.2817141723632813,-0.7404580152671756,0.061068702290076333,0.648854961832061
55:23:912899,2.1378543090820314,-2.6156607055664063,0.21076171875000002,-0.5725190839694656,0.3129770992366412,-0.13740458015267176
55:23:927985,2.3126907348632812,-3.1129266357421876,0.389190673828125,-0.6412213740458015,0.83206106870229,-1.2366412213740459
55:23:928123,1.6016693115234375,-3.3066238403320316,0.5930667114257813,-0.16793893129770993,1.4198473282442747,-2.396946564885496
55:23:957782,-0.5053491210937501,-1.9031423950195314,0.17154327392578125,0.9923664122137404,1.6106870229007633,-3.0839694656488548
55:24:002798,-1.4570700073242189,-0.46223876953125004,-0.4397854614257813,1.2519083969465647,1.8931297709923662,-3.114503816793893
55:24:050066,-1.3783337402343752,0.42302032470703127,-0.8505313110351563,1.4198473282442747,2.4351145038167936,-2.8244274809160306
55:24:227669,-1.1361373901367189,1.5211367797851563,0.05987548828125,0.83206106870229,2.16793893129771,-2.3435114503816794
55:24:245228,-1.3516891479492188,2.150428161621094,0.8247848510742188,0.8244274809160305,1.2366412213740459,-1.6106870229007633
55:24:407694,-0.8864566040039062,1.6471746826171876,1.1993060302734375,1.1908396946564885,0.4198473282442748,-0.83206106870229
55:24:407846,-0.667012939453125,1.40587646484375,0.67779052734375,1.2748091603053435,0.6030534351145038,-0.6870229007633587
55:24:407951,0.45235931396484375,2.411485290527344,0.559237060546875,0.9389312977099237,0.47328244274809156,-0.16793893129770993
55:24:498296,1.7205221557617187,1.1726614379882814,1.0388397216796876,1.0229007633587786,0.6030534351145038,0.7022900763358778
55:24:543426,2.0845651245117187,-0.4742138671875,2.4168740844726564,0.22900763358778625,-0.32061068702290074,0.10687022900763359
55:24:548753,2.648592224121094,-0.7194039916992188,1.477427673339844,0.1450381679389313,0.007633587786259542,0.015267175572519083
55:24:587811,2.608475646972656,-0.8062234497070313,1.1948153686523437,0.030534351145038167,0.05343511450381679,0.015267175572519083
55:24:677580,2.4767495727539064,-0.8589138793945313,1.159189453125,-0.05343511450381679,0.061068702290076333,0.0
55:24:677730,2.5893154907226563,-0.8184979248046875,1.01788330078125,0.03816793893129771,0.10687022900763359,0.03816793893129771
55:24:677833,2.5438101196289065,-0.7523355102539063,0.9190887451171875,-0.007633587786259542,0.0,0.07633587786259542
55:24:683376,2.5465045166015625,-0.8601113891601563,0.8313711547851563,0.007633587786259542,-0.04580152671755725,0.06870229007633588
55:24:812542,2.5572821044921876,-0.814306640625,0.8999285888671875,0.05343511450381679,-0.015267175572519083,0.06870229007633588
55:24:860063,2.5797354125976564,-0.7622149658203126,0.8843609619140625,-0.061068702290076333,0.03816793893129771,0.007633587786259542
55:24:910886,2.5602758789062503,-0.8352630615234375,0.6487509155273438,-0.10687022900763359,0.022900763358778626,-0.015267175572519083
55:24:993355,2.3438259887695314,-1.21427490234375,0.6182144165039063,0.17557251908396945,-0.061068702290076333,0.04580152671755725
55:24:993612,2.4037014770507814,-0.9789642333984375,0.7466473388671876,0.2748091603053435,0.04580152671755725,0.0
55:25:037868,2.521656188964844,-0.47660888671875,0.662222900390625,0.16793893129770993,0.06870229007633588,-0.03816793893129771
55:25:082610,2.5210574340820315,-0.22243743896484375,0.5601351928710938,-0.022900763358778626,0.04580152671755725,-0.08396946564885496
55:25:087960,2.471360778808594,-0.26315277099609374,0.40924896240234376,-0.11450381679389313,-0.030534351145038167,-0.09923664122137404
55:25:130427,2.4243585205078126,-0.5490582275390625,0.3948788452148438,-0.1984732824427481,-0.015267175572519083,-0.13740458015267176
55:25:226134,2.441722412109375,-0.762813720703125,0.42272094726562504,-0.15267175572519084,0.04580152671755725,-0.09923664122137404
55:25:262626,2.422562255859375,-0.5930667114257813,0.281414794921875,-0.0916030534351145,0.03816793893129771,-0.08396946564885496
55:25:353548,2.3734643554687502,-0.45146118164062504,0.286204833984375,-0.10687022900763359,0.015267175572519083,-0.0916030534351145
55:25:442731,2.1647982788085938,-0.24578887939453126,0.28530670166015626,-0.20610687022900762,-0.061068702290076333,-0.11450381679389313
55:25:442965,2.092947692871094,0.025746459960937502,0.45954437255859376,-0.38167938931297707,0.07633587786259542,-0.1450381679389313
55:25:487737,1.5426919555664063,0.7930508422851563,0.6245013427734375,-0.8396946564885496,0.09923664122137404,-0.34351145038167935
55:25:493651,0.6933581542968751,1.833387451171875,0.9307644653320313,-0.8778625954198473,0.030534351145038167,-0.061068702290076333
55:25:532616,-0.8448431396484375,3.08718017578125,1.2181668090820312,-0.9465648854961831,-1.1450381679389312,0.8396946564885496
55:25:622514,-2.1644989013671876,3.2260913085937504,-0.1299298095703125,-0.5877862595419847,-1.8549618320610686,1.9465648854961832
55:25:667520,-2.854563903808594,3.1823822021484376,-1.2600796508789063,-0.6183206106870229,-1.7938931297709924,2.66412213740458
55:25:712591,-3.520079956054688,3.4811608886718752,-2.259401550292969,-1.534351145038168,-1.7938931297709924,3.030534351145038
55:25:811657,-3.818858642578125,2.336341552734375,-2.2243743896484376,-1.3893129770992365,-1.748091603053435,3.312977099236641
55:25:892680,-2.977907409667969,0.5783972167968751,-1.2792398071289064,-0.33587786259541985,-1.366412213740458,3.3206106870229006
55:25:892843,-1.1678713989257814,-1.0208770751953125,-0.3673361206054688,0.1450381679389313,-1.0381679389312977,2.5801526717557253
55:25:983030,0.3511697387695313,-1.9492465209960939,0.20986358642578126,0.1297709923664122,-0.6870229007633587,1.618320610687023
55:26:163186,1.0783575439453126,-3.009042663574219,0.6667135620117188,-0.11450381679389313,-0.648854961832061,0.7022900763358778
55:26:163453,1.3995895385742188,-3.3254846191406253,0.42152343750000004,0.09923664122137404,-0.47328244274809156,-0.7175572519083969
55:26:180657,0.5574407958984375,-3.7113821411132815,-0.0461041259765625,0.7938931297709924,0.015267175572519083,-2.32824427480916
55:26:180805,-0.8843609619140625,-3.8218524169921877,-0.7358697509765625,1.2595419847328244,0.549618320610687,-3.2900763358778624
55:26:207942,-2.298021240234375,-2.592608642578125,-1.04662353515625,0.8931297709923663,1.045801526717557,-3.931297709923664
55:26:208115,-4.0266265869140625,0.7840695190429688,-0.5709127807617188,1.7251908396946565,0.3129770992366412,-2.0076335877862594
55:26:252886,-1.2795391845703126,3.07760009765625,0.8945397949218751,-1.0916030534351144,-0.5419847328244275,-0.3969465648854962
55:26:342600,0.7253915405273438,3.126398620605469,0.1011895751953125,1.0229007633587786,0.34351145038167935,1.9541984732824427
55:26:388055,0.024548950195312502,3.177891540527344,0.15208374023437501,-0.10687022900763359,0.12213740458015267,1.984732824427481
55:26:435354,0.09849517822265626,1.804647216796875,0.31853759765625,-0.732824427480916,0.3129770992366412,1.83206106870229
55:26:567605,0.125738525390625,-0.046403503417968756,0.30296997070312504,-1.1374045801526718,0.0,1.8244274809160304
55:26:567783,0.5990542602539063,-1.413959655761719,0.12603790283203126,-1.213740458015267,0.2213740458015267,1.2442748091603053
55:26:620804,1.0490185546875002,-2.1713845825195315,0.23141876220703125,-1.1832061068702289,0.0916030534351145,0.5114503816793893
55:26:703237,2.3378384399414065,-2.8839028930664066,-0.0916094970703125,-1.0687022900763359,0.45038167938931295,-0.549618320610687
55:26:703441,2.2112017822265626,-3.0853839111328125,0.13022918701171876,-0.732824427480916,1.129770992366412,-1.5267175572519083
55:26:792565,1.1669732666015626,-3.12071044921875,0.16495697021484376,0.3511450381679389,1.5419847328244274,-2.549618320610687
55:26:846210,-0.7170089721679688,-1.6983682250976564,-0.37811370849609377,1.2290076335877862,1.7938931297709924,-3.0610687022900764
55:26:846345,-1.2606784057617189,-0.468226318359375,-0.4436773681640625,0.9083969465648855,1.916030534351145,-2.9923664122137406
55:26:846428,-1.114881591796875,0.9457333374023438,-0.43080413818359375,-0.061068702290076333,2.549618320610687,-2.8702290076335877
55:26:882855,-1.1738589477539063,1.33402587890625,1.0804531860351563,0.3893129770992366,2.0610687022900764,-1.7938931297709924
55:27:153692,-1.2310400390625,1.4289285278320314,1.939666442871094,0.9618320610687022,1.366412213740458,-0.8244274809160305
55:27:287502,-1.2223580932617188,0.40356079101562503,1.1109896850585939,2.0610687022900764,0.5572519083969465,-0.23664122137404578
55:27:287667,-0.7475454711914062,2.103725280761719,0.4206253051757813,0.916030534351145,0.8473282442748091,-0.6412213740458015
55:27:342033,0.8352630615234375,2.1049227905273438,1.5055691528320314,1.4274809160305344,0.26717557251908397,0.8931297709923663
55:27:342155,1.6959732055664063,-0.7777825927734375,2.129471740722656,0.5343511450381679,-0.13740458015267176,0.2748091603053435
55:27:342240,2.566263427734375,-0.4966671752929688,1.5091616821289062,-0.08396946564885496,0.022900763358778626,-0.05343511450381679
55:27:347931,2.5405169677734376,-0.8553213500976563,1.2196636962890626,-0.08396946564885496,0.09923664122137404,-0.06870229007633588
55:27:348020,2.4306454467773437,-1.0355465698242188,1.1702664184570313,-0.1984732824427481,-0.015267175572519083,-0.05343511450381679
55:27:348100,2.4935147094726564,-1.1600875854492188,0.9053173828125001,0.015267175572519083,0.06870229007633588,0.007633587786259542
55:27:377696,2.536026306152344,-1.178349609375,0.9759704589843751,0.16793893129770993,0.022900763358778626,0.06870229007633588
55:27:468000,2.54830078125,-0.9496252441406251,0.9166937255859375,0.26717557251908397,0.07633587786259542,0.1297709923664122
55:27:512894,2.4818389892578128,-0.6951544189453125,0.9247769165039063,0.19083969465648853,0.061068702290076333,0.1450381679389313
55:27:557790,2.385140075683594,-0.6469546508789062,0.8496331787109376,0.030534351145038167,0.022900763358778626,0.07633587786259542
55:27:602759,2.3812481689453127,-0.7562274169921875,0.8029302978515626,-0.03816793893129771,0.007633587786259542,0.03816793893129771
55:27:693094,2.449805603027344,-0.839454345703125,0.7753875732421875,-0.06870229007633588,0.03816793893129771,0.015267175572519083
55:27:737498,2.4270529174804687,-0.9675878906250001,0.5541476440429688,-0.08396946564885496,0.007633587786259542,-0.007633587786259542
55:27:782713,2.2878424072265626,-1.2481045532226562,0.566422119140625,0.183206106870229,-0.022900763358778626,0.03816793893129771
55:27:962799,2.3076013183593753,-1.0996133422851564,0.6307882690429688,0.2900763358778626,0.07633587786259542,-0.030534351145038167
55:28:007749,2.4060964965820313,-0.5272036743164062,0.5733078002929688,0.16030534351145037,0.08396946564885496,-0.061068702290076333
55:28:106469,2.3806494140625003,-0.27273284912109375,0.4822970581054688,-0.061068702290076333,0.030534351145038167,-0.11450381679389313
55:28:106774,2.401905212402344,-0.384400634765625,0.3391946411132813,-0.16030534351145037,0.0,-0.13740458015267176
55:28:106957,2.3246658325195315,-0.5769003295898438,0.3362008666992188,-0.23664122137404578,0.007633587786259542,-0.1450381679389313
55:28:107121,2.4013064575195315,-0.6765930175781251,0.24159759521484375,-0.19083969465648853,0.03816793893129771,-0.11450381679389313
55:28:187831,2.368374938964844,-0.6104306030273438,0.21195922851562501,-0.183206106870229,0.03816793893129771,-0.09923664122137404
55:28:188138,2.318977661132813,-0.6256988525390625,0.1299298095703125,-0.10687022900763359,0.03816793893129771,-0.08396946564885496
55:28:232595,2.1570144653320313,-0.40505767822265626,0.18950592041015626,-0.09923664122137404,-0.022900763358778626,-0.08396946564885496
55:28:277503,2.10522216796875,-0.1874102783203125,0.19908599853515627,-0.25190839694656486,-0.015267175572519083,-0.0916030534351145
55:28:277638,1.864522705078125,0.18890716552734377,0.4424798583984375,-0.4427480916030534,0.061068702290076333,-0.19083969465648853
55:28:367887,1.2184661865234376,1.1130853271484376,0.686173095703125,-0.5572519083969465,-0.1297709923664122,-0.0916030534351145
55:28:412730,0.17633331298828125,2.228865051269531,0.9864486694335938,-0.7099236641221374,-0.8854961832061068,0.5801526717557252
55:28:457673,-0.9930349731445313,2.757565612792969,0.2963836669921875,-0.25190839694656486,-1.1832061068702289,1.5038167938931297
55:28:548445,-1.9944525146484375,3.4458343505859377,-0.3852987670898438,-0.1450381679389313,-1.0381679389312977,2.297709923664122
55:28:637696,-3.410208435058594,3.7999978637695313,-1.2400213623046876,-0.6946564885496183,-1.1603053435114503,3.312977099236641
55:28:637880,-4.429588623046875,3.0656250000000003,-1.9417620849609376,-1.16793893129771,-1.1450381679389312,3.9618320610687023
55:28:728453,-4.083807678222657,1.2924124145507814,-1.8857785034179688,-0.7175572519083969,-0.6106870229007634,3.7251908396946565
55:28:781647,-2.69918701171875,-0.31644195556640625,-0.97477294921875,-0.32061068702290074,-0.2595419847328244,3.1908396946564883
55:28:781806,-0.7451504516601563,-1.1870315551757813,-0.168848876953125,-0.5190839694656488,-0.33587786259541985,2.2061068702290076
55:28:863586,0.7086264038085938,-1.81781982421875,0.42870849609375,-0.4809160305343511,-0.29770992366412213,1.3969465648854962
55:28:863776,1.5468832397460939,-2.9889843750000002,0.7646099853515625,-0.34351145038167935,-0.45038167938931295,0.33587786259541985
55:28:907586,1.708547058105469,-3.4036221313476562,0.4233197021484375,0.7175572519083969,-0.10687022900763359,-1.0381679389312977
55:28:952965,0.5131329345703125,-3.8470001220703125,0.209564208984375,0.8625954198473282,-0.03816793893129771,-2.404580152671756
55:29:088194,-0.8493338012695313,-3.639232177734375,-0.7478448486328125,1.4809160305343512,0.2900763358778626,-3.0839694656488548
55:29:133163,-2.039658508300781,-2.245929565429688,-1.005908203125,0.47328244274809156,0.5572519083969465,-3.618320610687023
55:29:178394,-3.8577777099609376,0.7816744995117187,-1.2070898437500002,1.5725190839694656,0.732824427480916,-2.541984732824427
55:29:312681,-2.1680914306640626,3.1063403320312504,1.1852352905273438,-0.7404580152671756,-0.732824427480916,0.19083969465648853
55:29:312891,0.25656646728515625,3.1988479614257814,-0.0736468505859375,0.8473282442748091,0.17557251908396945,2.618320610687023
55:29:313239,-0.4808001708984375,3.356619873046875,-0.6822811889648438,-0.4961832061068702,0.47328244274809156,2.351145038167939
55:29:357532,-0.5751040649414063,0.9708810424804688,-0.16375946044921877,-1.2061068702290076,0.4198473282442748,2.1526717557251906
55:29:402891,-0.36673736572265625,-1.3394146728515626,-0.02903961181640625,-1.1374045801526718,0.12213740458015267,1.8549618320610686
55:29:448811,0.38350250244140627,-2.587519226074219,0.10987152099609375,-0.5877862595419847,0.3282442748091603,1.2213740458015268
55:29:449044,1.2250524902343751,-2.9228219604492187,0.28740234375,-0.6030534351145038,0.16793893129770993,0.47328244274809156
55:29:583231,2.342029724121094,-3.31710205078125,0.29728179931640625,-0.22900763358778625,0.6106870229007634,-0.4580152671755725
55:29:630932,1.986369323730469,-3.5877392578125002,0.7939489746093751,-0.16793893129770993,0.7099236641221374,-1.5267175572519083
55:29:631227,0.7906558227539063,-3.409010925292969,0.9864486694335938,0.33587786259541985,0.7175572519083969,-2.610687022900763
55:29:631374,-0.9487271118164063,-1.7507592773437501,-0.23022125244140626,1.1832061068702289,0.8625954198473282,-3.3664122137404577
55:29:672834,-2.0627105712890628,-0.4912783813476563,-0.7996371459960938,1.3893129770992365,1.2061068702290076,-3.480916030534351
55:29:807726,-1.78189453125,0.737666015625,-0.767603759765625,0.4198473282442748,1.4198473282442747,-3.396946564885496
55:29:897717,-1.7459692382812502,1.9597247314453126,-0.46193939208984375,0.05343511450381679,2.2900763358778624,-2.8167938931297707
55:29:988518,-1.6349002075195314,2.1354592895507816,1.5277230834960938,0.41221374045801523,1.6259541984732824,-1.6870229007633588
55:29:988692,-1.8318905639648437,2.160008239746094,1.6094531250000002,1.099236641221374,1.015267175572519,-0.6564885496183206
55:30:032892,-0.7753875732421875,2.022294616699219,1.1582913208007812,1.4198473282442747,0.5954198473282443,-0.10687022900763359
55:30:038206,0.28291168212890627,2.3477178955078126,1.73638916015625,1.648854961832061,0.549618320610687,0.4961832061068702
55:30:038431,1.4681469726562502,0.37931121826171876,2.251318359375,0.7480916030534351,-0.0916030534351145,0.549618320610687
55:30:077791,2.412084045410156,-0.5394781494140626,1.6726217651367188,-0.3129770992366412,-0.030534351145038167,-0.16793893129770993
55:30:122694,2.6806256103515627,-0.6032455444335938,1.0098001098632814,-0.030534351145038167,0.04580152671755725,0.022900763358778626
55:30:257870,2.5629702758789064,-0.861009521484375,0.8711883544921876,-0.015267175572519083,0.015267175572519083,0.015267175572519083
55:30:302644,2.4324417114257812,-1.0050100708007812,0.942440185546875,0.16030534351145037,0.030534351145038167,0.061068702290076333
55:30:308147,2.372266845703125,-0.7738906860351563,0.9541159057617188,0.15267175572519084,0.030534351145038167,0.08396946564885496
55:30:393487,2.4096890258789063,-0.6307882690429688,0.8810678100585938,0.10687022900763359,0.015267175572519083,0.06870229007633588
55:30:438412,2.4869284057617187,-0.56282958984375,0.7996371459960938,0.04580152671755725,0.022900763358778626,0.06870229007633588
55:30:527787,2.4563919067382813,-0.5909710693359376,0.7583230590820312,-0.022900763358778626,0.03816793893129771,0.03816793893129771
55:30:572715,2.3881338500976566,-0.6577322387695312,0.69216064453125,-0.04580152671755725,0.015267175572519083,0.022900763358778626
55:30:579002,2.3620880126953128,-0.6592291259765626,0.6233038330078126,0.0,0.03816793893129771,0.022900763358778626
55:30:620513,2.3079006958007815,-0.6822811889648438,0.504151611328125,-0.07633587786259542,-0.022900763358778626,0.022900763358778626
55:30:662931,2.225871276855469,-1.0807525634765625,0.4559518432617188,0.15267175572519084,-0.03816793893129771,0.015267175572519083
55:30:752814,2.26808349609375,-1.01788330078125,0.5586383056640625,0.282442748091603,0.06870229007633588,-0.022900763358778626
55:30:888418,2.3246658325195315,-0.48139892578125004,0.4454736328125,0.24427480916030533,0.06870229007633588,-0.03816793893129771
55:30:893833,2.2947280883789065,-0.16795074462890625,0.43619293212890625,0.015267175572519083,0.007633587786259542,-0.04580152671755725
55:30:893991,2.29921875,-0.2805166625976563,0.3113525390625,-0.061068702290076333,-0.022900763358778626,-0.061068702290076333
55:30:894137,2.2375469970703126,-0.4640350341796875,0.28530670166015626,-0.1450381679389313,-0.007633587786259542,-0.10687022900763359
55:30:977750,2.198328552246094,-0.6289920043945313,0.2568658447265625,-0.16030534351145037,0.030534351145038167,-0.10687022900763359
55:31:031335,2.22976318359375,-0.6026467895507813,0.15597564697265626,-0.09923664122137404,0.04580152671755725,-0.0916030534351145
55:31:112844,2.1644989013671876,-0.4592449951171875,0.1442999267578125,-0.06870229007633588,0.015267175572519083,-0.07633587786259542
55:31:112980,2.1151016235351565,-0.33410522460937503,0.11825408935546876,-0.09923664122137404,0.015267175572519083,-0.0916030534351145
55:31:248030,1.969903564453125,-0.31853759765625,0.16705261230468751,-0.15267175572519084,-0.022900763358778626,-0.08396946564885496
55:31:293413,1.8660195922851563,-0.10268646240234376,0.18082397460937502,-0.23664122137404578,0.030534351145038167,-0.12213740458015267
55:31:293671,1.3046868896484376,1.0241702270507813,-0.00868194580078125,-0.5419847328244275,0.04580152671755725,0.0
55:31:338896,0.8199948120117188,1.5031741333007813,0.24548950195312502,-0.564885496183206,-0.05343511450381679,0.4580152671755725
55:31:344775,0.5754034423828125,1.591490478515625,0.30805938720703124,-0.6259541984732824,-0.1450381679389313,0.5114503816793893
55:31:382683,-1.02746337890625,3.4344580078125,0.346080322265625,-0.9694656488549618,-1.198473282442748,1.5190839694656488
55:31:427601,-2.2243743896484376,3.0695169067382815,-0.3391946411132813,-0.3511450381679389,-1.5877862595419847,2.610687022900763
55:31:475413,-2.6503884887695315,2.9695248413085937,-1.2460089111328125,-0.8778625954198473,-1.3282442748091603,3.114503816793893
55:31:608240,-3.1228060913085938,2.54590576171875,-1.9330801391601564,-1.534351145038168,-1.3435114503816794,3.2748091603053435
55:31:653054,-2.446213073730469,1.533710632324219,-1.7265097045898439,-0.648854961832061,-0.7557251908396946,3.3664122137404577
55:31:653187,-0.8316705322265625,0.23141876220703125,-0.8220904541015626,-0.3053435114503817,-0.11450381679389313,2.931297709923664
55:31:697516,0.6996450805664063,-0.6643185424804687,-0.047601013183593756,-0.4351145038167939,-0.183206106870229,2.0
55:31:742894,1.4855108642578125,-1.402283935546875,0.7092251586914062,-0.42748091603053434,-0.0916030534351145,1.381679389312977
55:31:788828,1.854942626953125,-2.8467800903320315,1.120869140625,-0.20610687022900762,-0.41221374045801523,0.4198473282442748
55:31:967803,1.7549505615234375,-3.320395202636719,0.786763916015625,0.549618320610687,-0.3129770992366412,-0.7404580152671756
55:31:983905,0.501756591796875,-3.665278015136719,0.27452911376953126,0.7557251908396946,-0.16030534351145037,-2.1297709923664123
55:32:015140,-0.9139993286132813,-3.061433715820313,-0.27422973632812503,0.9618320610687022,0.12213740458015267,-2.854961832061069
55:32:113283,-1.4894027709960938,-2.204615478515625,-0.7176077270507812,0.5725190839694656,0.6259541984732824,-3.4885496183206106
55:32:113469,-2.8360025024414064,-0.9849517822265625,-1.2031979370117187,1.8091603053435115,0.9923664122137404,-3.3740458015267176
55:32:148346,-3.5413357543945314,2.4096890258789063,-0.4999603271484375,-0.7099236641221374,0.37404580152671757,-1.7938931297709924
55:32:148508,-0.3119512939453125,3.262914733886719,0.8538244628906251,1.2748091603053435,-0.4351145038167939,2.2519083969465647
55:32:237719,-0.32183074951171875,3.188669128417969,-0.076640625,-0.23664122137404578,-0.007633587786259542,2.5343511450381677
55:32:437766,-0.6433621215820313,2.17707275390625,-0.43649230957031254,-0.9236641221374046,0.366412213740458,2.267175572519084
55:32:437959,-0.6209088134765626,-0.05179229736328125,-0.0053887939453125,-1.0534351145038168,0.23664122137404578,2.2061068702290076
55:32:462629,-0.22692810058593751,-1.597178649902344,-0.07843688964843751,-0.7175572519083969,0.3282442748091603,1.8015267175572518
55:32:509183,0.32063323974609376,-2.130070495605469,0.2963836669921875,-0.732824427480916,0.366412213740458,1.1526717557251909
55:32:509415,1.0385403442382812,-2.7596612548828126,0.7682025146484376,-0.7938931297709924,0.16793893129770993,0.41221374045801523
55:32:642737,1.8372793579101563,-2.828218688964844,0.7792794799804688,-0.4351145038167939,0.35877862595419846,-0.45038167938931295
55:32:642874,1.8947598266601564,-2.6399102783203126,0.7966433715820312,-0.6870229007633587,0.7404580152671756,-1.5114503816793892
55:32:690552,1.1969110107421876,-2.594704284667969,0.6152206420898437,0.0916030534351145,1.1526717557251909,-2.404580152671756
55:32:690749,-0.468226318359375,-1.6331039428710938,0.09101074218750001,0.916030534351145,1.4961832061068703,-3.1908396946564883
55:32:690912,-1.8384768676757814,-0.38889129638671877,-0.33320709228515627,1.2671755725190839,1.6106870229007633,-3.2442748091603053
55:32:733047,-1.8926641845703125,0.9193881225585938,-0.5346881103515625,0.7480916030534351,1.5725190839694656,-3.1068702290076335
55:32:823308,-1.41066650390625,1.8824853515625002,0.2751278686523438,0.9236641221374046,2.32824427480916,-2.5725190839694654
55:32:913085,-1.4720388793945314,2.783910827636719,1.0451266479492187,0.007633587786259542,1.9770992366412212,-2.091603053435114
55:32:913289,-1.8495538330078125,2.3884332275390627,1.8839822387695313,1.114503816793893,1.1755725190839694,-0.7633587786259541
55:32:957531,-0.5514532470703125,2.010319519042969,1.5989749145507812,1.213740458015267,0.5114503816793893,-0.19083969465648853
55:33:158037,0.7331753540039063,1.598675537109375,1.4133609008789063,0.7633587786259541,0.47328244274809156,0.007633587786259542
55:33:182655,1.3939013671875,0.9648934936523438,1.8507513427734377,1.1450381679389312,0.17557251908396945,0.4351145038167939
55:33:182846,2.113005981445313,-0.12124786376953126,1.8079403686523439,0.6946564885496183,-0.030534351145038167,0.34351145038167935
55:33:182938,2.3728656005859374,-0.46223876953125004,1.5831079101562502,-0.03816793893129771,-0.04580152671755725,-0.061068702290076333
55:33:273432,2.568658447265625,-0.6562353515625,1.1361373901367189,-0.022900763358778626,0.06870229007633588,0.007633587786259542
55:33:273663,2.558778991699219,-0.8439450073242188,1.0163864135742189,0.022900763358778626,0.05343511450381679,-0.007633587786259542
55:33:362998,2.502496032714844,-0.8894503784179688,0.9705816650390625,0.1984732824427481,0.05343511450381679,0.08396946564885496
55:33:452846,2.4818389892578128,-0.7044351196289063,0.9657916259765625,0.23664122137404578,0.061068702290076333,0.10687022900763359
55:33:459198,2.4351361083984377,-0.5798941040039063,0.9732760620117188,0.09923664122137404,-0.007633587786259542,0.07633587786259542
55:33:544064,2.472258911132813,-0.5610333251953126,0.9044192504882813,0.007633587786259542,0.0,0.04580152671755725
55:33:812982,2.4731570434570314,-0.619112548828125,0.8774752807617188,-0.061068702290076333,0.015267175572519083,0.0
55:33:813148,2.468067626953125,-0.5682183837890625,0.7744894409179688,-0.19083969465648853,0.04580152671755725,-0.030534351145038167
55:33:813297,2.422262878417969,-0.9313632202148437,0.5050497436523438,-0.0916030534351145,-0.030534351145038167,-0.04580152671755725
55:33:825193,2.322570190429688,-1.2457095336914064,0.6753955078125,0.16030534351145037,-0.022900763358778626,-0.022900763358778626
55:33:825372,2.4411236572265627,-0.8771759033203126,0.628692626953125,0.3053435114503817,0.09923664122137404,-0.061068702290076333
55:33:857835,2.3974145507812503,-0.21884490966796877,0.5505551147460938,0.11450381679389313,0.061068702290076333,-0.05343511450381679
55:33:902723,2.376757507324219,-0.07813751220703126,0.5035528564453126,-0.05343511450381679,-0.03816793893129771,-0.061068702290076333
55:33:908045,2.3704705810546876,-0.3143463134765625,0.3879931640625,-0.17557251908396945,-0.03816793893129771,-0.11450381679389313
55:33:948610,2.3076013183593753,-0.568817138671875,0.43110351562500004,-0.26717557251908397,0.0,-0.12213740458015267
55:33:993531,2.342029724121094,-0.6424639892578126,0.2604583740234375,-0.13740458015267176,0.04580152671755725,-0.09923664122137404
55:33:998811,2.296524353027344,-0.4876858520507813,0.255069580078125,-0.08396946564885496,0.022900763358778626,-0.11450381679389313
55:34:040353,2.2995181274414063,-0.37392242431640627,0.23231689453125,-0.07633587786259542,-0.007633587786259542,-0.07633587786259542
55:34:082822,2.1444406127929687,-0.37362304687500003,0.2712359619140625,-0.05343511450381679,0.022900763358778626,-0.0916030534351145
55:34:127744,1.9381695556640626,-0.17214202880859375,0.2808160400390625,-0.15267175572519084,-0.03816793893129771,-0.09923664122137404
55:34:172690,1.7908758544921877,0.17453704833984376,0.46193939208984375,-0.366412213740458,0.09923664122137404,-0.1297709923664122
55:34:352726,1.0253677368164062,1.3016931152343751,1.2331356811523437,-0.6564885496183206,-0.16793893129770993,-0.061068702290076333
55:34:367312,-0.5433700561523438,2.4641757202148438,1.3412109375,-0.9236641221374046,-1.534351145038168,1.0
55:34:397585,-1.2714559936523437,2.7461892700195314,0.477806396484375,-0.282442748091603,-1.282442748091603,1.4809160305343512
55:34:442895,-2.22497314453125,3.6574942016601564,0.3649411010742188,0.0,-1.1908396946564885,2.4198473282442747
55:34:443040,-2.5893154907226563,3.4479299926757814,-0.53408935546875,-0.3511450381679389,-1.1374045801526718,2.969465648854962
55:34:532562,-2.891686706542969,3.1883697509765625,-1.414259033203125,-0.9847328244274809,-0.8473282442748091,3.2671755725190836
55:34:578177,-2.5776397705078127,2.271376647949219,-1.5968792724609375,-0.8625954198473282,-0.45038167938931295,3.183206106870229
55:34:623033,-1.7387841796875,1.1972103881835938,-1.0208770751953125,-0.3511450381679389,-0.183206106870229,3.16030534351145
55:34:802577,-0.5553451538085937,0.09250762939453125,-0.3062631225585938,-0.4961832061068702,-0.1297709923664122,2.480916030534351
55:34:802741,0.31404693603515627,-0.9077124023437501,0.520916748046875,-0.549618320610687,-0.183206106870229,1.8244274809160304
55:34:847447,1.0017169189453126,-2.50758544921875,1.1487112426757813,-0.6412213740458015,-0.3282442748091603,0.9694656488549618
55:34:847568,1.33881591796875,-3.073708190917969,1.06578369140625,-0.10687022900763359,-0.4427480916030534,-0.3893129770992366
55:34:847652,0.6493496704101562,-3.353925476074219,0.21195922851562501,0.8702290076335878,-0.20610687022900762,-2.0076335877862594
55:34:892946,-1.3082794189453126,-3.8634658813476563,-0.7658074951171875,1.7251908396946565,0.04580152671755725,-3.1908396946564883
55:34:940083,-2.5072860717773438,-2.4578887939453127,-1.4364129638671876,1.4427480916030533,0.13740458015267176,-3.549618320610687
55:34:982683,-3.6251614379882815,-0.9499246215820313,-1.4109658813476562,1.549618320610687,0.46564885496183206,-3.5267175572519083
55:35:073348,-2.7225384521484375,2.38783447265625,-0.9696835327148438,-1.1068702290076335,-0.34351145038167935,-0.916030534351145
55:35:117916,1.5019766235351564,3.0189221191406252,-0.43888732910156253,1.6030534351145038,0.04580152671755725,1.618320610687023
55:35:162965,1.17116455078125,3.1799871826171877,-0.5852828979492187,-0.6793893129770993,0.5038167938931297,1.7099236641221374
55:35:297561,0.5230123901367187,2.1968316650390625,0.00748443603515625,-0.9236641221374046,0.4961832061068702,1.8625954198473282
55:35:342553,0.1676513671875,0.3921844482421875,0.47660888671875,-0.8702290076335878,0.29770992366412213,1.9770992366412212
55:35:342738,0.12304412841796876,-0.9145980834960938,0.35476226806640626,-0.7404580152671756,0.24427480916030533,1.7175572519083968
55:35:342829,0.28380981445312503,-1.6399896240234375,0.4972659301757813,-0.9083969465648855,0.21374045801526717,1.198473282442748
55:35:387694,1.1358380126953125,-2.35909423828125,0.6738986206054688,-0.7022900763358778,0.08396946564885496,0.6717557251908397
55:35:486797,1.9534378051757812,-3.25483154296875,0.5649252319335938,-0.22900763358778625,0.21374045801526717,-0.3053435114503817
55:35:524342,1.8273999023437502,-3.4823583984375004,0.7277865600585938,-0.3969465648854962,0.6641221374045801,-1.5190839694656488
55:35:524519,0.6176156616210938,-3.0470635986328127,0.5894741821289062,0.19083969465648853,0.9389312977099237,-2.618320610687023
55:35:567803,-0.9786648559570313,-1.0400372314453126,-0.1778302001953125,0.8778625954198473,1.2595419847328244,-3.2748091603053435
55:35:703993,-1.8875747680664063,-0.0053887939453125,-0.25267456054687504,0.8473282442748091,1.66412213740458,-3.3664122137404577
