accel.x,accel.y,accel.z,gyro.x,gyro.y,gyro.z
0.42571472167968755,-0.47481262207031255,-0.9705816650390625,0.5572519083969465,-0.03816793893129771,0.03816793893129771
0.4571493530273438,-0.11406280517578125,-1.169667663574219,-0.06870229007633588,-0.015267175572519083,-0.06870229007633588
0.5260061645507813,-0.11765533447265626,-1.0696755981445314,0.015267175572519083,0.022900763358778626,-0.06870229007633588
0.4592449951171875,-0.10627899169921876,-0.8451425170898438,-0.17557251908396945,-0.04580152671755725,0.0
0.48409332275390626,-0.18441650390625,-1.0241702270507813,-0.015267175572519083,0.022900763358778626,0.015267175572519083
0.4831951904296875,-0.12364288330078126,-0.9852511596679688,-0.07633587786259542,0.007633587786259542,-0.007633587786259542
0.4831951904296875,-0.16136444091796875,-0.8556207275390626,-0.061068702290076333,-0.022900763358778626,-0.015267175572519083
0.49187713623046875,-0.18950592041015626,-0.9502239990234376,0.0916030534351145,-0.015267175572519083,-0.007633587786259542
0.4727169799804688,-0.15717315673828125,-0.9921368408203125,0.007633587786259542,-0.007633587786259542,-0.022900763358778626
0.47571075439453125,-0.17663269042968752,-0.9645941162109376,0.0,-0.007633587786259542,-0.007633587786259542
0.48529083251953126,-0.22094055175781252,-0.9544152832031251,0.015267175572519083,-0.007633587786259542,-0.015267175572519083
0.48289581298828127,-0.22034179687500002,-0.959205322265625,0.022900763358778626,-0.007633587786259542,-0.022900763358778626
0.4870870971679688,-0.2197430419921875,-0.9550140380859375,0.022900763358778626,0.0,-0.015267175572519083
0.4999603271484375,-0.26315277099609374,-0.9598040771484375,0.022900763358778626,-0.007633587786259542,-0.007633587786259542
0.48618896484375,-0.2763253784179688,-0.9517208862304688,0.007633587786259542,-0.007633587786259542,-0.015267175572519083
0.48289581298828127,-0.2724334716796875,-0.9454339599609376,0.022900763358778626,-0.007633587786259542,-0.015267175572519083
0.4966671752929688,-0.30716125488281254,-0.9385482788085938,0.015267175572519083,-0.007633587786259542,-0.007633587786259542
0.49097900390625004,-0.3011737060546875,-0.9157955932617188,0.015267175572519083,-0.015267175572519083,-0.015267175572519083
0.4954696655273438,-0.32572265625,-0.9181906127929688,0.030534351145038167,-0.007633587786259542,-0.007633587786259542
0.4999603271484375,-0.31853759765625,-0.93166259765625,0.022900763358778626,-0.007633587786259542,-0.015267175572519083
0.5026547241210938,-0.32602203369140625,-0.9325607299804688,0.007633587786259542,-0.015267175572519083,-0.015267175572519083
0.496966552734375,-0.3445834350585938,-0.9113049316406251,0.015267175572519083,-0.007633587786259542,-0.015267175572519083
0.4942721557617188,-0.35206787109375004,-0.9116043090820313,0.007633587786259542,-0.007633587786259542,-0.015267175572519083
0.49876281738281253,-0.3523672485351563,-0.9098080444335938,0.007633587786259542,-0.007633587786259542,-0.015267175572519083
0.49636779785156254,-0.35625915527343754,-0.9160949707031251,0.007633587786259542,-0.007633587786259542,-0.015267175572519083
0.49606842041015625,-0.36673736572265625,-0.9128018188476563,0.007633587786259542,-0.007633587786259542,-0.007633587786259542
0.494571533203125,-0.36314483642578127,-0.9044192504882813,0.015267175572519083,-0.007633587786259542,-0.007633587786259542
0.5002597045898438,-0.3799099731445313,-0.9071136474609376,0.030534351145038167,0.0,-0.007633587786259542
0.5092410278320313,-0.3879931640625,-0.904119873046875,0.007633587786259542,-0.007633587786259542,-0.015267175572519083
0.5050497436523438,-0.39398071289062503,-0.890947265625,0.007633587786259542,-0.007633587786259542,-0.015267175572519083
0.5050497436523438,-0.389190673828125,-0.9002279663085938,0.007633587786259542,-0.007633587786259542,-0.007633587786259542
0.5029541015625,-0.39517822265625,-0.9014254760742187,0.007633587786259542,-0.007633587786259542,-0.007633587786259542
0.5080435180664062,-0.40745269775390625,-0.8930429077148438,0.007633587786259542,-0.007633587786259542,-0.007633587786259542
0.511336669921875,-0.40206390380859375,-0.890947265625,0.015267175572519083,-0.007633587786259542,-0.007633587786259542
0.508941650390625,-0.4041595458984375,-0.8855584716796876,0.007633587786259542,-0.015267175572519083,-0.015267175572519083
0.5095404052734376,-0.4125421142578125,-0.8915460205078125,0.022900763358778626,-0.015267175572519083,-0.015267175572519083
0.5086422729492188,-0.40745269775390625,-0.8900491333007813,0.015267175572519083,-0.015267175572519083,-0.015267175572519083
0.5086422729492188,-0.4056564331054688,-0.8984317016601563,0.015267175572519083,-0.007633587786259542,-0.015267175572519083
0.5029541015625,-0.40206390380859375,-0.904119873046875,0.007633587786259542,-0.007633587786259542,-0.007633587786259542
0.5029541015625,-0.39817199707031253,-0.899329833984375,-0.007633587786259542,-0.007633587786259542,-0.007633587786259542
0.5092410278320313,-0.3993695068359375,-0.8975335693359375,0.015267175572519083,-0.007633587786259542,-0.007633587786259542
0.5014572143554688,-0.4041595458984375,-0.8903485107421876,0.0,-0.007633587786259542,-0.007633587786259542
0.504151611328125,-0.40805145263671877,-0.8915460205078125,0.015267175572519083,-0.007633587786259542,-0.007633587786259542
0.5044509887695313,-0.41344024658203127,-0.8810678100585938,0.022900763358778626,-0.007633587786259542,-0.007633587786259542
0.5095404052734376,-0.4125421142578125,-0.8912466430664063,0.015267175572519083,-0.007633587786259542,-0.007633587786259542
0.5134323120117188,-0.41164398193359375,-0.8930429077148438,0.015267175572519083,-0.007633587786259542,-0.007633587786259542
0.5080435180664062,-0.4167333984375,-0.882564697265625,0.015267175572519083,-0.007633587786259542,-0.007633587786259542
0.51013916015625,-0.4152365112304688,-0.8846603393554688,0.007633587786259542,-0.007633587786259542,-0.007633587786259542
0.506546630859375,-0.41314086914062503,-0.87897216796875,0.007633587786259542,-0.007633587786259542,-0.007633587786259542
0.5068460083007813,-0.4110452270507813,-0.8729846191406251,0.007633587786259542,-0.007633587786259542,-0.007633587786259542
0.5179229736328125,-0.42242156982421875,-0.8765771484375,0.007633587786259542,-0.007633587786259542,-0.015267175572519083
0.51013916015625,-0.42272094726562504,-0.8666976928710938,0.022900763358778626,0.0,-0.015267175572519083
0.5313949584960938,-0.4017645263671875,-0.8541238403320313,-0.015267175572519083,0.015267175572519083,-0.022900763358778626
0.5730084228515625,-0.6008505249023438,-0.7673043823242188,0.1984732824427481,0.030534351145038167,0.0
0.5284011840820313,-0.5544470214843751,-0.8804690551757813,0.1297709923664122,-0.07633587786259542,-0.03816793893129771
0.4532574462890625,-0.499361572265625,-0.9226812744140626,-0.015267175572519083,-0.0916030534351145,-0.07633587786259542
0.4999603271484375,-0.547261962890625,-0.8924441528320313,-0.022900763358778626,-0.08396946564885496,-0.07633587786259542
0.4454736328125,-0.47720764160156254,-0.8208929443359375,-0.07633587786259542,-0.05343511450381679,-0.04580152671755725
0.4412823486328125,-0.47750701904296877,-0.8511300659179688,-0.08396946564885496,-0.015267175572519083,0.015267175572519083
0.40116577148437504,-0.44068359375000005,-0.8649014282226563,-0.15267175572519084,0.015267175572519083,0.08396946564885496
0.4891827392578125,-0.3499722290039063,-0.9307644653320313,-0.1297709923664122,0.022900763358778626,0.061068702290076333
0.6972500610351563,-0.22483245849609376,-1.0457254028320313,-0.15267175572519084,-0.015267175572519083,0.015267175572519083
0.33141082763671875,-0.05837860107421875,-0.9475296020507813,-0.3969465648854962,0.03816793893129771,-0.11450381679389313
0.6248007202148438,0.11555969238281251,-0.8101153564453125,0.19083969465648853,-0.022900763358778626,0.05343511450381679
0.39577697753906255,-0.12424163818359375,-1.0103988647460938,-0.04580152671755725,-0.007633587786259542,0.030534351145038167
0.5170248413085938,-0.051492919921875005,-0.9011260986328126,0.183206106870229,0.04580152671755725,0.03816793893129771
0.5125341796875,0.0628692626953125,-0.9966275024414063,-0.03816793893129771,-0.015267175572519083,0.022900763358778626
0.5269042968750001,0.013172607421875001,-1.0666818237304687,0.07633587786259542,-0.007633587786259542,-0.022900763358778626
0.35745666503906254,-0.19429595947265627,-0.9346563720703126,0.22900763358778625,0.022900763358778626,-0.03816793893129771
0.6026467895507813,-0.3074606323242188,-0.959205322265625,0.3893129770992366,-0.015267175572519083,0.007633587786259542
0.4218228149414063,-0.3442840576171875,-0.9885443115234376,0.0,-0.08396946564885496,-0.06870229007633588
0.41463775634765626,-0.5885760498046876,-0.8322692871093751,0.16793893129770993,0.022900763358778626,-0.061068702290076333
0.51013916015625,-0.5885760498046876,-0.7520361328125,0.08396946564885496,0.04580152671755725,-0.03816793893129771
0.4667294311523438,-0.49367340087890627,-0.6292913818359376,0.07633587786259542,0.015267175572519083,0.030534351145038167
0.587977294921875,-0.7191046142578126,-0.7418572998046875,0.12213740458015267,0.0,0.03816793893129771
0.5002597045898438,-0.6499484252929688,-0.8146060180664063,-0.05343511450381679,0.007633587786259542,0.0
0.5044509887695313,-0.5810916137695313,-0.722098388671875,-0.04580152671755725,0.007633587786259542,-0.015267175572519083
0.5298980712890625,-0.662222900390625,-0.6900650024414063,0.015267175572519083,-0.022900763358778626,-0.007633587786259542
0.5059478759765625,-0.6059399414062501,-0.7948471069335938,0.022900763358778626,-0.022900763358778626,-0.015267175572519083
0.49636779785156254,-0.564027099609375,-0.7948471069335938,-0.030534351145038167,-0.015267175572519083,-0.022900763358778626
0.06376739501953126,0.2197430419921875,-1.1235635375976563,-0.6030534351145038,-0.19083969465648853,0.0
-0.5960604858398438,-0.73048095703125,0.7349716186523438,-0.4580152671755725,-1.1526717557251909,-0.3129770992366412
-1.2543914794921875,-0.7667056274414062,0.3894900512695313,-0.83206106870229,-1.7786259541984732,-1.015267175572519
-0.571212158203125,-0.9780661010742188,0.504151611328125,0.40458015267175573,-0.9465648854961831,-1.1221374045801527
1.7411791992187502,-1.1112890625,1.3322296142578125,0.05343511450381679,0.0916030534351145,-0.10687022900763359
2.3668780517578125,-1.46335693359375,1.7800982666015626,0.030534351145038167,-0.10687022900763359,-0.1984732824427481
1.0750643920898437,-1.3897100830078126,1.7884808349609376,0.35877862595419846,0.32061068702290074,0.2748091603053435
1.1505075073242188,0.8158035278320312,-0.6370751953125,-0.6793893129770993,0.8549618320610687,0.48854961832061067
-0.22602996826171876,-1.3427078247070314,0.09969268798828125,1.0229007633587786,0.47328244274809156,0.17557251908396945
0.2820135498046875,0.041613464355468754,2.0983364868164065,-0.19083969465648853,0.3893129770992366,0.11450381679389313
0.3706292724609375,-0.8475375366210938,1.7289047241210938,0.2900763358778626,-0.22900763358778625,-0.16793893129770993
0.43110351562500004,-0.44996429443359376,1.2540921020507814,-0.3969465648854962,-0.5572519083969465,-0.4427480916030534
0.69695068359375,-0.8963360595703126,1.22385498046875,0.04580152671755725,-0.7022900763358778,-0.6183206106870229
1.2319381713867188,0.0335302734375,0.820294189453125,0.015267175572519083,-0.11450381679389313,-0.282442748091603
1.5546670532226563,-0.3391946411132813,0.9008267211914063,0.04580152671755725,0.15267175572519084,0.282442748091603
0.8325686645507813,-0.08562194824218751,0.33829650878906253,-0.15267175572519084,0.564885496183206,0.5419847328244275
0.6268963623046875,-0.21884490966796877,0.29488677978515626,-0.29770992366412213,1.4198473282442747,1.0229007633587786
0.5146298217773437,-1.0666818237304687,0.8529263305664063,0.2900763358778626,1.3740458015267174,0.6870229007633587
1.0565029907226564,-0.564027099609375,1.3058843994140625,0.34351145038167935,1.0076335877862594,0.42748091603053434
0.32063323974609376,1.3921051025390625,-0.9457333374023438,-0.13740458015267176,0.6335877862595419,0.21374045801526717
1.1804452514648438,-1.0559042358398438,0.4697232055664063,0.34351145038167935,0.0,0.0
1.2017010498046876,0.18082397460937502,-0.762813720703125,1.2671755725190839,-0.007633587786259542,0.09923664122137404
1.281036071777344,0.15717315673828125,-0.5107379150390625,-0.7557251908396946,-0.1297709923664122,-0.1297709923664122
1.0939251708984377,0.2966830444335938,-0.3553610229492188,0.183206106870229,0.08396946564885496,-0.015267175572519083
1.1804452514648438,0.04460723876953125,-0.5945635986328125,0.0916030534351145,-0.030534351145038167,0.007633587786259542
1.1199710083007812,0.17453704833984376,-0.5355862426757813,-0.08396946564885496,-0.015267175572519083,-0.061068702290076333
1.01788330078125,-0.03113525390625,-0.5945635986328125,0.022900763358778626,-0.015267175572519083,-0.015267175572519083
1.0517129516601562,-0.086220703125,-0.5882766723632813,0.21374045801526717,0.03816793893129771,0.022900763358778626
1.0391390991210938,-0.038020935058593754,-0.631087646484375,0.183206106870229,0.015267175572519083,-0.007633587786259542
1.0639874267578127,-0.052989807128906254,-0.7164102172851563,-0.007633587786259542,-0.03816793893129771,-0.007633587786259542
0.9151968383789063,-0.0473016357421875,-0.661025390625,-0.06870229007633588,-0.04580152671755725,-0.030534351145038167
0.8714877319335937,-0.0544866943359375,-0.621507568359375,-0.0916030534351145,-0.09923664122137404,0.007633587786259542
0.8556207275390626,0.01526824951171875,-0.750838623046875,0.09923664122137404,-0.09923664122137404,-0.022900763358778626
0.9415420532226563,-0.045205993652343755,-0.8113128662109376,-0.08396946564885496,-0.10687022900763359,-0.015267175572519083
0.8116122436523437,-0.10148895263671875,-0.5373825073242188,-0.16793893129770993,0.015267175572519083,0.05343511450381679
0.7451504516601563,0.14998809814453126,-0.5945635986328125,-0.1450381679389313,-0.061068702290076333,-0.015267175572519083
0.69695068359375,0.10029144287109376,-0.7056326293945313,0.04580152671755725,0.0,-0.022900763358778626
0.7361691284179688,0.057779846191406255,-0.7038363647460938,0.1984732824427481,0.030534351145038167,0.0
0.7122189331054688,0.18830841064453127,-0.7933502197265625,0.061068702290076333,0.030534351145038167,0.030534351145038167
0.7229965209960938,0.1197509765625,-0.8077203369140625,0.007633587786259542,0.030534351145038167,0.030534351145038167
0.67300048828125,0.08113128662109376,-0.8017327880859375,-0.030534351145038167,0.015267175572519083,-0.007633587786259542
0.7747888183593751,-0.03502716064453125,-0.7505392456054688,0.12213740458015267,-0.015267175572519083,-0.022900763358778626
0.6783892822265626,-0.03861968994140625,-0.8319699096679688,0.15267175572519084,-0.022900763358778626,-0.030534351145038167
0.7391629028320312,-0.10089019775390626,-0.8355624389648438,0.0916030534351145,0.022900763358778626,-0.04580152671755725
0.671802978515625,-0.12304412841796876,-0.7906558227539063,0.022900763358778626,0.022900763358778626,-0.015267175572519083
0.549656982421875,-0.12094848632812501,-0.8152047729492188,-0.09923664122137404,-0.030534351145038167,0.007633587786259542
0.7095245361328125,-0.19699035644531251,-0.7056326293945313,-0.0916030534351145,-0.022900763358778626,-0.007633587786259542
0.5517526245117188,-0.39038818359375,-0.7002438354492188,0.2748091603053435,0.022900763358778626,0.022900763358778626
0.8005352783203126,-0.05718109130859375,-0.8427474975585938,0.1297709923664122,0.015267175572519083,0.022900763358778626
0.6460565185546875,-0.276624755859375,-0.8424481201171875,-0.03816793893129771,0.015267175572519083,0.0
0.6634204101562501,-0.290994873046875,-0.7705975341796876,0.04580152671755725,0.022900763358778626,-0.015267175572519083
0.6553372192382813,-0.26764343261718754,-0.7562274169921875,0.030534351145038167,-0.015267175572519083,-0.030534351145038167
0.661025390625,-0.26075775146484376,-0.8283773803710938,0.0,0.0,-0.022900763358778626
0.6508465576171876,-0.3784130859375,-0.8780740356445313,0.19083969465648853,0.04580152671755725,-0.04580152671755725
0.7203021240234375,-0.2700384521484375,-0.750838623046875,-0.04580152671755725,0.022900763358778626,-0.007633587786259542
0.5936654663085937,-0.3694317626953125,-0.5427713012695313,-0.06870229007633588,-0.06870229007633588,0.0
0.18591339111328126,-0.5685177612304688,-0.132923583984375,0.8702290076335878,-0.282442748091603,0.06870229007633588
-1.0882369995117187,-0.25626708984375,0.8547225952148438,-0.6106870229007634,-1.4732824427480915,-0.05343511450381679
-1.3600717163085938,-0.6544390869140625,0.26435028076171874,-0.9694656488549618,-1.9389312977099236,-0.6717557251908397
-0.9271719360351564,-0.7250921630859375,0.3918850708007813,-0.1984732824427481,-1.580152671755725,-0.8702290076335878
0.4236190795898438,-0.6756948852539063,0.700543212890625,0.0,-0.4198473282442748,-0.5877862595419847
1.7411791992187502,-0.9439370727539063,1.19990478515625,0.0,0.08396946564885496,-0.15267175572519084
2.210303649902344,-0.8864566040039062,1.5025753784179687,-0.16030534351145037,0.17557251908396945,0.19083969465648853
1.9022442626953127,-1.1756552124023438,1.9043399047851564,-0.07633587786259542,0.26717557251908397,0.34351145038167935
1.2963043212890626,-0.6253994750976563,1.6474740600585938,0.2595419847328244,0.23664122137404578,0.1984732824427481
-0.39428009033203126,2.1234841918945313,-1.8821859741210938,-0.9770992366412213,0.19083969465648853,0.47328244274809156
0.741258544921875,-1.4055770874023439,1.789977722167969,1.2900763358778626,0.648854961832061,0.1984732824427481
0.446671142578125,0.27692413330078125,1.5920892333984376,-0.7480916030534351,0.10687022900763359,-0.015267175572519083
0.6436614990234375,-0.5897735595703125,1.4178515625,0.21374045801526717,0.06870229007633588,-0.022900763358778626
0.47451324462890626,-0.23171813964843752,1.3001962280273438,-0.015267175572519083,-0.32061068702290074,-0.17557251908396945
0.7691006469726563,-0.686173095703125,1.4971865844726564,-0.16793893129770993,-0.6030534351145038,-0.42748091603053434
1.0241702270507813,-0.6460565185546875,0.9035211181640626,0.25190839694656486,-0.6183206106870229,-0.4961832061068702
1.2406201171875,-0.2173480224609375,0.9888436889648438,-0.04580152671755725,-0.35877862595419846,-0.282442748091603
1.4882052612304688,-0.07334747314453126,1.0591973876953125,-0.09923664122137404,-0.03816793893129771,0.04580152671755725
0.26854156494140624,0.08412506103515625,0.02844085693359375,-0.2213740458015267,0.7480916030534351,0.6946564885496183
0.19788848876953127,0.13382171630859377,-0.1389111328125,-0.11450381679389313,1.4351145038167938,1.0381679389312977
0.07843688964843751,-0.6559359741210938,0.7966433715820312,0.04580152671755725,1.7786259541984732,1.015267175572519
0.8265811157226562,-0.9645941162109376,2.357896728515625,0.5725190839694656,1.3129770992366412,0.6946564885496183
0.3445834350585938,0.6667135620117188,-0.21315673828125,-0.007633587786259542,0.7175572519083969,0.6106870229007634
0.6104306030273438,0.6966513061523438,0.6274951171875001,0.022900763358778626,0.10687022900763359,0.11450381679389313
1.347198486328125,0.03622467041015625,-0.099393310546875,0.4198473282442748,0.0,0.030534351145038167
1.4019845581054688,0.07304809570312501,-0.48618896484375,-0.16793893129770993,-0.030534351145038167,-0.08396946564885496
1.1391311645507813,0.5718109130859376,-0.277822265625,0.183206106870229,-0.015267175572519083,0.03816793893129771
1.232237548828125,0.18591339111328126,-0.5610333251953126,-0.08396946564885496,-0.05343511450381679,0.007633587786259542
1.2445120239257814,0.08292755126953126,-0.5670208740234375,0.015267175572519083,-0.015267175572519083,-0.03816793893129771
1.1304492187500002,0.2751278686523438,-0.48289581298828127,0.03816793893129771,-0.030534351145038167,-0.015267175572519083
1.1265573120117187,0.0335302734375,-0.5906716918945313,0.007633587786259542,-0.030534351145038167,-0.03816793893129771
1.0987152099609376,0.07274871826171875,-0.5658233642578125,0.03816793893129771,-0.007633587786259542,-0.05343511450381679
1.093326416015625,0.0185614013671875,-0.4930746459960938,0.12213740458015267,-0.015267175572519083,-0.022900763358778626
0.947230224609375,-0.09280700683593751,-0.7068301391601562,0.183206106870229,-0.07633587786259542,-0.022900763358778626
0.9801617431640626,-0.03113525390625,-0.700543212890625,-0.11450381679389313,-0.07633587786259542,-0.030534351145038167
0.9996212768554688,-0.02005828857421875,-0.6340814208984376,-0.12213740458015267,-0.022900763358778626,-0.007633587786259542
0.9346563720703126,0.046702880859375004,-0.6277944946289062,-0.3053435114503817,-0.007633587786259542,0.007633587786259542
0.8828640747070313,-0.01945953369140625,-0.62031005859375,-0.19083969465648853,-0.007633587786259542,-0.007633587786259542
0.852626953125,-0.00209564208984375,-0.6304888916015625,-0.03816793893129771,-0.015267175572519083,-0.007633587786259542
0.8232879638671875,0.03113525390625,-0.7071295166015625,0.061068702290076333,-0.04580152671755725,-0.007633587786259542
0.7999365234375,0.12334350585937501,-0.7774832153320312,0.007633587786259542,-0.061068702290076333,-0.030534351145038167
0.7505392456054688,0.16735198974609375,-0.8738827514648438,-0.1297709923664122,-0.061068702290076333,0.015267175572519083
0.6783892822265626,0.374820556640625,-0.7696994018554688,-0.549618320610687,-0.022900763358778626,-0.022900763358778626
0.8652008056640625,-0.04819976806640625,-0.5873785400390625,0.015267175572519083,0.061068702290076333,0.06870229007633588
0.6541397094726563,0.31344818115234374,-0.6607260131835938,-0.13740458015267176,-0.022900763358778626,-0.007633587786259542
0.7361691284179688,0.11106903076171876,-0.7149133300781251,0.1297709923664122,0.015267175572519083,-0.015267175572519083
0.6933581542968751,0.12274475097656251,-0.7616162109375001,0.26717557251908397,0.015267175572519083,0.007633587786259542
0.6957531738281251,0.17693206787109375,-0.846639404296875,0.06870229007633588,-0.007633587786259542,0.030534351145038167
0.7238946533203126,0.12484039306640625,-0.8538244628906251,0.12213740458015267,0.007633587786259542,-0.015267175572519083
0.6173162841796875,0.07155120849609375,-0.8559201049804688,0.03816793893129771,-0.007633587786259542,-0.03816793893129771
0.6691085815429688,-0.00808319091796875,-0.8161029052734375,0.05343511450381679,-0.007633587786259542,-0.022900763358778626
0.72090087890625,-0.07155120849609375,-0.8316705322265625,0.06870229007633588,-0.015267175572519083,-0.015267175572519083
0.7056326293945313,-0.0718505859375,-0.8678952026367188,0.007633587786259542,0.007633587786259542,-0.03816793893129771
0.6268963623046875,-0.17573455810546876,-0.8190966796875,0.10687022900763359,0.030534351145038167,-0.022900763358778626
0.7092251586914062,-0.125738525390625,-0.7625143432617187,-0.061068702290076333,-0.007633587786259542,0.0
0.5942642211914063,-0.27812164306640624,-0.7720944213867188,0.15267175572519084,0.030534351145038167,0.015267175572519083
0.5948629760742188,-0.18531463623046876,-0.8128097534179688,0.12213740458015267,0.0,0.0
0.6774911499023438,-0.202379150390625,-0.8625064086914063,0.061068702290076333,-0.007633587786259542,-0.007633587786259542
0.6005511474609375,-0.26195526123046875,-0.8196954345703126,-0.007633587786259542,0.007633587786259542,0.0
0.6251000976562501,-0.24938140869140626,-0.7711962890625,0.0,0.0,0.0
0.6089337158203125,-0.2817141723632813,-0.7876620483398438,0.022900763358778626,-0.015267175572519083,-0.015267175572519083
0.6062393188476562,-0.2871029663085938,-0.8220904541015626,0.015267175572519083,-0.007633587786259542,-0.022900763358778626
0.5891748046875,-0.288599853515625,-0.8068222045898438,-0.030534351145038167,0.0,-0.007633587786259542
0.5843847656250001,-0.30147308349609375,-0.7963439941406251,-0.007633587786259542,-0.007633587786259542,-0.015267175572519083
0.5266049194335938,-0.26914031982421877,-0.7262896728515625,-0.007633587786259542,-0.04580152671755725,-0.022900763358778626
0.055384826660156254,-0.0700543212890625,-0.26914031982421877,-0.3969465648854962,-0.4427480916030534,-0.08396946564885496
-0.40386016845703127,-0.5936654663085937,0.10298583984375001,-0.19083969465648853,-1.129770992366412,-0.7251908396946565
-0.7643106079101563,-0.643062744140625,0.21674926757812502,0.0916030534351145,-1.099236641221374,-0.8473282442748091
-0.310155029296875,-1.0490185546875002,0.9918374633789063,0.32061068702290074,-0.9083969465648855,-0.7251908396946565
0.1389111328125,-1.0080038452148439,1.0199789428710937,-0.015267175572519083,-0.7633587786259541,-0.5038167938931297
0.8283773803710938,-0.8714877319335937,1.0023156738281251,0.13740458015267176,-0.4351145038167939,-0.29770992366412213
2.3725662231445312,-1.1981085205078126,1.5741265869140626,0.03816793893129771,0.22900763358778625,0.061068702290076333
1.4543756103515626,-1.275347900390625,1.7806970214843751,0.5343511450381679,0.29770992366412213,0.1450381679389313
-0.789158935546875,2.7536737060546876,-2.9162356567382814,-1.816793893129771,0.1450381679389313,0.5267175572519084
0.7661068725585938,-1.62861328125,1.0559042358398438,1.549618320610687,0.8015267175572519,0.35877862595419846
0.37751495361328125,0.5891748046875,1.5468832397460939,-0.83206106870229,0.34351145038167935,0.06870229007633588
0.523311767578125,-1.1238629150390627,1.5681390380859377,0.282442748091603,0.1450381679389313,0.04580152671755725
0.42571472167968755,-0.058977355957031255,1.3681549072265626,-0.09923664122137404,-0.12213740458015267,-0.06870229007633588
0.42960662841796876,-0.6984475708007812,1.3070819091796875,0.37404580152671757,-0.3053435114503817,-0.11450381679389313
0.6382727050781251,-0.39008880615234376,1.0606942749023438,-0.6030534351145038,-0.4809160305343511,-0.3893129770992366
0.9098080444335938,-0.8978329467773438,1.265767822265625,0.061068702290076333,-0.5725190839694656,-0.47328244274809156
1.2882211303710938,-0.5325924682617188,1.1837384033203127,0.04580152671755725,-0.29770992366412213,-0.3053435114503817
1.2115805053710937,-0.2601589965820313,0.9726773071289063,-0.07633587786259542,0.07633587786259542,0.1297709923664122
0.9957293701171875,-0.2604583740234375,0.8684939575195313,-0.030534351145038167,0.33587786259541985,0.35877862595419846
0.5412744140625,-0.011675720214843751,0.5092410278320313,-0.2900763358778626,0.5954198473282443,0.6793893129770993
0.4098477172851563,0.1335223388671875,-0.07873626708984376,-0.04580152671755725,1.083969465648855,0.9770992366412213
-0.014070739746093752,-0.24129821777343752,0.2712359619140625,0.0,1.3435114503816794,1.0076335877862594
0.805924072265625,-1.1511062622070314,1.7594412231445313,0.5114503816793893,1.4885496183206106,0.7557251908396946
0.9798623657226563,0.49517028808593755,0.09819580078125001,-0.38167938931297707,1.1450381679389312,0.42748091603053434
0.6628216552734375,1.3286370849609375,-0.4397854614257813,-0.5725190839694656,0.26717557251908397,0.1450381679389313
1.3148657226562501,-0.04071533203125,-0.060474243164062504,1.213740458015267,0.25190839694656486,0.07633587786259542
1.2714559936523437,0.34278717041015627,-0.247884521484375,-0.6870229007633587,-0.0916030534351145,-0.0916030534351145
1.3298345947265626,0.3391946411132813,-0.5586383056640625,0.1297709923664122,-0.03816793893129771,-0.022900763358778626
1.2846286010742187,0.2655477905273438,-0.5670208740234375,0.12213740458015267,-0.007633587786259542,0.030534351145038167
1.299298095703125,0.290994873046875,-0.64905029296875,-0.1450381679389313,0.0,-0.022900763358778626
1.2534933471679688,0.2601589965820313,-0.5703140258789062,0.022900763358778626,0.0,0.007633587786259542
1.2445120239257814,0.17603393554687502,-0.5846841430664063,0.015267175572519083,-0.007633587786259542,-0.007633587786259542
1.2672647094726563,0.1933978271484375,-0.64905029296875,0.03816793893129771,-0.007633587786259542,-0.022900763358778626
1.2148736572265626,0.16016693115234376,-0.6637197875976563,0.015267175572519083,-0.022900763358778626,-0.030534351145038167
1.1660751342773439,0.14280303955078125,-0.6735992431640625,-0.007633587786259542,-0.03816793893129771,-0.03816793893129771
1.1187734985351563,0.04999603271484375,-0.6562353515625,-0.007633587786259542,-0.03816793893129771,-0.030534351145038167
1.184337158203125,0.02844085693359375,-0.6652166748046875,0.03816793893129771,-0.007633587786259542,-0.022900763358778626
1.011895751953125,-0.00389190673828125,-0.6792874145507812,0.11450381679389313,-0.007633587786259542,0.007633587786259542
1.1064990234375,-0.10089019775390626,-0.7104226684570313,0.06870229007633588,-0.03816793893129771,0.015267175572519083
1.0457254028320313,-0.11466156005859375,-0.7128176879882813,0.08396946564885496,-0.015267175572519083,0.007633587786259542
1.071771240234375,-0.0724493408203125,-0.7065307617187501,0.0,-0.015267175572519083,0.007633587786259542
1.047821044921875,-0.12244537353515626,-0.710123291015625,-0.09923664122137404,-0.022900763358778626,-0.022900763358778626
0.9505233764648438,0.00269439697265625,-0.8086184692382813,-0.20610687022900762,-0.07633587786259542,-0.030534351145038167
0.9870474243164064,0.02844085693359375,-0.8436456298828126,-0.11450381679389313,-0.05343511450381679,-0.03816793893129771
0.882564697265625,0.2442919921875,-0.8954379272460938,-0.26717557251908397,-0.05343511450381679,-0.05343511450381679
0.9301657104492188,0.21405487060546877,-0.8379574584960938,-0.35877862595419846,-0.022900763358778626,-0.05343511450381679
0.9601034545898438,0.3095562744140625,-0.7200027465820313,0.03816793893129771,-0.007633587786259542,0.0
0.8280780029296876,0.21884490966796877,-0.8262817382812501,0.1297709923664122,-0.015267175572519083,-0.030534351145038167
0.7637118530273438,0.24668701171875002,-0.8439450073242188,0.1450381679389313,0.0,0.015267175572519083
0.7837701416015626,0.19309844970703127,-0.8960366821289063,0.10687022900763359,0.0,0.03816793893129771
0.7547305297851563,0.0383203125,-0.8403524780273438,0.07633587786259542,0.015267175572519083,-0.007633587786259542
0.7723937988281251,0.038020935058593754,-0.8448431396484375,0.15267175572519084,0.015267175572519083,-0.007633587786259542
0.789158935546875,-0.038020935058593754,-0.8613088989257813,0.11450381679389313,-0.015267175572519083,-0.015267175572519083
0.7523355102539063,-0.10508148193359376,-0.8822653198242187,0.05343511450381679,-0.022900763358778626,-0.03816793893129771
0.7667056274414062,-0.2508782958984375,-0.863404541015625,0.1450381679389313,0.015267175572519083,-0.015267175572519083
0.6463558959960938,-0.2329156494140625,-0.8430468750000001,0.0916030534351145,0.0,-0.007633587786259542
0.6744973754882813,-0.23680755615234375,-0.7810757446289063,-0.04580152671755725,0.007633587786259542,0.022900763358778626
0.7241940307617187,-0.30805938720703124,-0.7903564453125,-0.04580152671755725,-0.022900763358778626,-0.007633587786259542
0.7325765991210937,-0.38200561523437504,-0.7825726318359375,0.015267175572519083,0.0,-0.007633587786259542
0.6780899047851563,-0.3622467041015625,-0.7774832153320312,-0.030534351145038167,-0.015267175572519083,-0.022900763358778626
0.6840774536132813,-0.31763946533203125,-0.8086184692382813,-0.030534351145038167,-0.015267175572519083,-0.022900763358778626
0.6571334838867188,-0.2424957275390625,-0.8607101440429688,-0.04580152671755725,-0.015267175572519083,-0.022900763358778626
0.0389190673828125,-0.6050418090820313,0.0017962646484375,-0.3511450381679389,-0.7022900763358778,-0.366412213740458
-0.8403524780273438,-1.0565029907226564,0.7226971435546875,-0.45038167938931295,-1.5954198473282442,-1.1603053435114503
-0.7301815795898438,-1.0487191772460938,0.4571493530273438,0.33587786259541985,-1.1603053435114503,-1.1526717557251909
-0.04340972900390625,-1.0071057128906251,0.4592449951171875,0.3129770992366412,-0.8244274809160305,-0.8931297709923663
1.1624826049804688,-0.9277706909179688,0.38739440917968754,-0.030534351145038167,0.09923664122137404,-0.3511450381679389
2.102527770996094,-1.0639874267578127,1.2936099243164063,-0.06870229007633588,0.35877862595419846,0.1450381679389313
1.7729132080078125,-1.407073974609375,1.8591339111328127,0.08396946564885496,0.2900763358778626,0.4351145038167939
1.3777349853515626,-0.36703674316406254,1.222657470703125,-0.10687022900763359,0.46564885496183206,0.21374045801526717
-0.042810974121093755,0.9993218994140626,-1.174457702636719,-0.9618320610687022,0.030534351145038167,0.030534351145038167
0.8038284301757813,-1.1657757568359375,1.5600558471679689,1.2366412213740459,0.7938931297709924,0.12213740458015267
0.5254074096679687,-0.29608428955078125,1.327738952636719,-0.8778625954198473,0.03816793893129771,-0.06870229007633588
0.6924600219726563,-0.9559121704101563,1.2064910888671876,0.42748091603053434,0.09923664122137404,-0.022900763358778626
0.42960662841796876,-0.07753875732421875,1.0726693725585938,-0.1450381679389313,-0.32061068702290074,-0.13740458015267176
0.6580316162109375,-0.38619689941406254,1.3983920288085938,-0.4198473282442748,-0.5572519083969465,-0.3969465648854962
0.8349636840820313,-0.9187893676757813,1.2385244750976563,-0.007633587786259542,-0.7709923664122137,-0.6412213740458015
1.1439212036132813,-0.6765930175781251,0.9092092895507813,0.183206106870229,-0.6335877862595419,-0.46564885496183206
1.28133544921875,-0.12364288330078126,0.7137158203125,-0.06870229007633588,-0.11450381679389313,-0.030534351145038167
0.664617919921875,-0.0975970458984375,0.5242098999023438,-0.1297709923664122,0.5801526717557252,0.6641221374045801
0.25896148681640624,0.028141479492187503,0.08053253173828126,-0.1297709923664122,1.1832061068702289,1.0
0.2640509033203125,-0.6634204101562501,0.7080276489257813,-0.007633587786259542,1.5572519083969465,0.9770992366412213
0.8478369140625001,-0.7837701416015626,1.550475769042969,-0.015267175572519083,1.4351145038167938,0.8091603053435115
1.1268566894531251,0.15837066650390627,0.487386474609375,-0.41221374045801523,0.8778625954198473,0.3053435114503817
0.7685018920898438,1.3385165405273438,-0.9035211181640626,-0.4580152671755725,0.34351145038167935,0.2595419847328244
1.1708651733398439,0.3299139404296875,0.2544708251953125,-0.4427480916030534,0.022900763358778626,0.030534351145038167
1.3597723388671876,0.13202545166015625,-0.3251239013671875,0.16793893129770993,-0.007633587786259542,-0.04580152671755725
1.3534854125976563,0.7068301391601562,-0.643062744140625,-0.15267175572519084,-0.03816793893129771,-0.07633587786259542
1.24541015625,0.468226318359375,-0.43888732910156253,0.08396946564885496,-0.007633587786259542,-0.015267175572519083
1.2549902343750001,0.45146118164062504,-0.631087646484375,-0.007633587786259542,-0.015267175572519083,-0.022900763358778626
1.2214599609375,0.4550537109375,-0.5924679565429688,-0.007633587786259542,-0.007633587786259542,-0.022900763358778626
1.2208612060546875,0.384400634765625,-0.6059399414062501,0.015267175572519083,-0.030534351145038167,-0.03816793893129771
1.1253598022460938,0.16555572509765626,-0.5568420410156251,0.21374045801526717,0.015267175572519083,0.0
1.0648855590820312,0.22543121337890626,-0.718505859375,0.183206106870229,-0.05343511450381679,-0.015267175572519083
1.10410400390625,0.164058837890625,-0.7334747314453125,0.015267175572519083,-0.04580152671755725,-0.022900763358778626
1.0421328735351563,0.18082397460937502,-0.67779052734375,-0.13740458015267176,-0.030534351145038167,-0.03816793893129771
1.0133926391601562,0.10597961425781251,-0.7164102172851563,-0.030534351145038167,-0.05343511450381679,-0.03816793893129771
0.9442364501953125,0.18291961669921875,-0.7646099853515625,-0.1297709923664122,-0.07633587786259542,-0.06870229007633588
0.9753717041015626,0.24399261474609377,-0.748443603515625,-0.1297709923664122,-0.08396946564885496,-0.08396946564885496
0.9229806518554688,0.2559677124023438,-0.7463479614257813,-0.15267175572519084,-0.06870229007633588,-0.030534351145038167
0.9349557495117188,0.3350033569335938,-0.7849676513671875,-0.2595419847328244,-0.015267175572519083,0.0
0.7511380004882813,0.3119512939453125,-0.6783892822265626,-0.2595419847328244,-0.015267175572519083,0.015267175572519083
0.9633966064453126,0.3565585327148438,-0.6798861694335938,-0.061068702290076333,-0.007633587786259542,-0.022900763358778626
0.7792794799804688,0.30027557373046876,-0.7415579223632813,0.1297709923664122,0.0,-0.015267175572519083
0.8146060180664063,0.26614654541015625,-0.7963439941406251,0.183206106870229,0.0,0.0
0.8038284301757813,0.19728973388671875,-0.8253836059570313,0.09923664122137404,0.0,0.030534351145038167
0.718505859375,0.13142669677734375,-0.8065228271484376,0.09923664122137404,0.0,-0.015267175572519083
0.7996371459960938,-0.026345214843750003,-0.8547225952148438,0.22900763358778625,0.0,-0.04580152671755725
0.6553372192382813,0.0059875488281250005,-0.8463400268554688,0.1297709923664122,-0.007633587786259542,-0.03816793893129771
0.8173004150390626,-0.10687774658203125,-0.8235873413085938,0.07633587786259542,0.015267175572519083,0.015267175572519083
0.7086264038085938,-0.13202545166015625,-0.8559201049804688,-0.061068702290076333,0.0,0.0
0.6840774536132813,-0.11526031494140626,-0.8050259399414063,-0.09923664122137404,-0.022900763358778626,-0.015267175572519083
0.7679031372070313,-0.28380981445312503,-0.7203021240234375,0.09923664122137404,0.007633587786259542,-0.022900763358778626
0.6370751953125,-0.39398071289062503,-0.7786807250976563,0.3893129770992366,0.04580152671755725,0.007633587786259542
0.719703369140625,-0.31823822021484377,-0.7247927856445313,0.15267175572519084,-0.007633587786259542,0.0
0.6915618896484376,-0.41763153076171877,-0.7235952758789063,-0.0916030534351145,-0.015267175572519083,0.0
0.7253915405273438,-0.5011578369140626,-0.7481442260742188,0.29770992366412213,0.022900763358778626,-0.04580152671755725
0.671802978515625,-0.41074584960937505,-0.7134164428710937,0.34351145038167935,-0.015267175572519083,-0.015267175572519083
0.19369720458984377,-1.0193801879882813,0.35685791015625,-0.4198473282442748,-0.7480916030534351,-0.3511450381679389
-0.46702880859375,-1.2034973144531251,0.6888674926757813,0.05343511450381679,-1.4732824427480915,-1.0305343511450382
-0.26345214843750003,-1.1220666503906251,0.6370751953125,0.24427480916030533,-1.1068702290076335,-0.9770992366412213
1.0385403442382812,-1.0394384765625,0.5873785400390625,0.0916030534351145,-0.061068702290076333,-0.22900763358778625
1.8271005249023438,-1.0352471923828126,0.97716796875,-0.03816793893129771,0.26717557251908397,0.11450381679389313
1.8196160888671875,-0.9268725585937501,1.4923965454101564,0.03816793893129771,0.32061068702290074,0.41221374045801523
1.2292437744140625,-0.9876461791992188,1.3001962280273438,0.5190839694656488,0.4580152671755725,0.2748091603053435
-0.13711486816406251,1.0439291381835938,-1.23822509765625,-1.213740458015267,0.11450381679389313,-0.1450381679389313
0.444276123046875,-0.9142987060546875,2.049837341308594,0.9923664122137404,0.5954198473282443,0.08396946564885496
0.4628375244140625,-0.8002359008789063,1.3274395751953125,0.0,-0.12213740458015267,-0.0916030534351145
0.33260833740234375,-0.2712359619140625,1.2831317138671876,0.1297709923664122,-0.37404580152671757,-0.16030534351145037
0.3050656127929688,-0.23171813964843752,1.1585906982421876,-0.03816793893129771,-0.4961832061068702,-0.06870229007633588
0.49517028808593755,-0.5334906005859376,1.1897259521484376,-0.47328244274809156,-0.5801526717557252,-0.2595419847328244
0.8690927124023438,-0.8104147338867188,1.0804531860351563,-0.061068702290076333,-0.7022900763358778,-0.4427480916030534
1.2037966918945313,-0.5451663208007813,0.9723779296875,0.0,-0.35877862595419846,-0.42748091603053434
1.3148657226562501,-0.013172607421875001,1.0963201904296875,-0.1450381679389313,-0.1450381679389313,-0.1450381679389313
1.4935940551757814,-0.4367916870117188,1.0936257934570313,0.06870229007633588,0.0916030534351145,0.1450381679389313
0.8475375366210938,-0.09520202636718751,0.6161187744140625,-0.04580152671755725,0.40458015267175573,0.366412213740458
0.24399261474609377,-0.011975097656250001,-0.14819183349609374,-0.26717557251908397,1.3206106870229006,1.0381679389312977
0.669407958984375,-0.8113128662109376,1.4507830810546876,0.183206106870229,1.7633587786259541,0.9770992366412213
1.6076568603515626,-1.0493179321289063,1.5798147583007813,0.6717557251908397,1.4045801526717556,0.5572519083969465
0.3362008666992188,1.957928466796875,-1.0523117065429688,-0.5267175572519084,0.7022900763358778,0.2595419847328244
1.44419677734375,0.23441253662109376,0.22303619384765627,-0.6564885496183206,-0.030534351145038167,-0.0916030534351145
1.3585748291015625,0.33709899902343754,-0.568817138671875,0.015267175572519083,-0.04580152671755725,-0.06870229007633588
1.4148577880859377,0.31524444580078126,-0.5861810302734375,0.030534351145038167,-0.05343511450381679,0.0
1.3504916381835939,0.11885284423828125,-0.6125262451171876,-0.007633587786259542,-0.04580152671755725,-0.030534351145038167
1.3364208984375001,0.29309051513671874,-0.6505471801757813,-0.0916030534351145,-0.05343511450381679,-0.03816793893129771
1.311273193359375,0.1694476318359375,-0.5454656982421875,-0.08396946564885496,-0.05343511450381679,-0.030534351145038167
1.2930111694335937,0.12304412841796876,-0.5691165161132813,0.061068702290076333,0.007633587786259542,-0.007633587786259542
1.1594888305664064,0.04101470947265625,-0.6256988525390625,0.13740458015267176,-0.022900763358778626,0.007633587786259542
1.2534933471679688,0.0568817138671875,-0.7059320068359375,0.05343511450381679,-0.03816793893129771,0.0
1.2028985595703126,0.0032931518554687503,-0.686173095703125,0.0,-0.022900763358778626,0.0
1.1517050170898437,-0.03203338623046875,-0.6182144165039063,-0.08396946564885496,-0.03816793893129771,-0.022900763358778626
1.1370355224609376,-0.0508941650390625,-0.6445596313476563,0.022900763358778626,-0.04580152671755725,-0.015267175572519083
1.0759625244140625,-0.052989807128906254,-0.6984475708007812,0.015267175572519083,-0.06870229007633588,-0.030534351145038167
1.0912307739257814,0.02125579833984375,-0.7813751220703126,0.015267175572519083,-0.07633587786259542,-0.03816793893129771
1.148411865234375,0.01047821044921875,-0.801134033203125,-0.25190839694656486,-0.022900763358778626,-0.05343511450381679
0.8173004150390626,0.011975097656250001,-0.6744973754882813,-0.2900763358778626,0.015267175572519083,0.0
1.1238629150390627,-0.00029937744140625,-0.6029461669921875,-0.05343511450381679,-0.015267175572519083,0.007633587786259542
1.0217752075195312,0.12424163818359375,-0.7613168334960938,0.007633587786259542,0.0,0.015267175572519083
0.9157955932617188,0.0688568115234375,-0.7879614257812501,-0.05343511450381679,-0.022900763358778626,-0.007633587786259542
0.8957373046875,0.10568023681640626,-0.8044271850585938,0.022900763358778626,-0.022900763358778626,0.015267175572519083
0.9110055541992188,0.094603271484375,-0.8325686645507813,-0.03816793893129771,-0.015267175572519083,0.015267175572519083
0.9286688232421876,0.06825805664062501,-0.7963439941406251,0.0,0.0,0.0
0.8346643066406251,-0.03592529296875,-0.8211923217773438,0.12213740458015267,-0.03816793893129771,-0.030534351145038167
0.8616082763671875,-0.09310638427734376,-0.8304730224609376,0.0916030534351145,-0.015267175572519083,-0.022900763358778626
0.8783734130859375,-0.16675323486328125,-0.8173004150390626,0.13740458015267176,0.030534351145038167,-0.015267175572519083
0.8864566040039062,-0.1945953369140625,-0.8280780029296876,0.061068702290076333,0.030534351145038167,-0.007633587786259542
0.7241940307617187,-0.209564208984375,-0.8496331787109376,-0.030534351145038167,-0.015267175572519083,-0.007633587786259542
0.8864566040039062,-0.25626708984375,-0.7301815795898438,-0.007633587786259542,0.015267175572519083,-0.007633587786259542
0.7658074951171875,-0.3400927734375,-0.7098239135742188,0.13740458015267176,-0.007633587786259542,0.0
0.9825567626953126,-0.5409750366210938,-0.719703369140625,0.37404580152671757,-0.03816793893129771,0.03816793893129771
0.6697073364257813,-0.37751495361328125,-0.808319091796875,-0.061068702290076333,-0.015267175572519083,-0.030534351145038167
0.8601113891601563,-0.3852987670898438,-0.7203021240234375,-0.07633587786259542,-0.022900763358778626,-0.007633587786259542
0.7403604125976563,-0.43619293212890625,-0.7328759765625,-0.03816793893129771,-0.015267175572519083,-0.022900763358778626
0.7490423583984376,-0.3457809448242188,-0.7238946533203126,0.030534351145038167,0.007633587786259542,-0.007633587786259542
-0.1598675537109375,-0.559237060546875,0.4409829711914063,-0.5190839694656488,-0.9389312977099237,-0.23664122137404578
-1.2555889892578125,-0.7924520874023437,0.6855743408203125,-0.6641221374045801,-1.66412213740458,-1.2519083969465647
-0.9403445434570313,-0.8690927124023438,0.5586383056640625,0.37404580152671757,-1.2366412213740459,-1.045801526717557
0.25836273193359377,-1.0490185546875002,0.5206173706054688,-0.0916030534351145,-0.8549618320610687,-0.8167938931297709
1.3513897705078126,-0.6370751953125,0.7493417358398438,0.06870229007633588,-0.23664122137404578,-0.3511450381679389
1.9552340698242188,-0.5909710693359376,0.5810916137695313,0.022900763358778626,0.3893129770992366,0.08396946564885496
1.7696200561523439,-0.6664141845703125,0.79754150390625,0.007633587786259542,0.9083969465648855,0.6183206106870229
2.070195007324219,-1.2924124145507814,2.7785220336914063,0.6335877862595419,0.4427480916030534,0.4351145038167939
0.10927276611328125,-1.5825091552734376,1.1295510864257814,0.916030534351145,0.42748091603053434,0.07633587786259542
0.40894958496093753,-0.017064514160156252,1.4627581787109376,-0.5114503816793893,0.05343511450381679,-0.0916030534351145
0.6457571411132813,0.02784210205078125,1.3187576293945313,0.0,-0.2595419847328244,-0.06870229007633588
0.6721023559570313,-0.5655239868164063,1.028660888671875,-0.549618320610687,-0.5801526717557252,-0.3969465648854962
1.043031005859375,-0.6583309936523438,0.95561279296875,0.3129770992366412,-0.6183206106870229,-0.42748091603053434
1.2531939697265626,-0.13801300048828125,0.928070068359375,-0.19083969465648853,-0.32061068702290074,-0.22900763358778625
1.3513897705078126,-0.1071771240234375,0.7828720092773438,-0.20610687022900762,0.0916030534351145,0.16030534351145037
1.0154882812500001,-0.08771759033203125,0.6613247680664063,-0.17557251908396945,0.366412213740458,0.46564885496183206
0.5718109130859376,0.07843688964843751,0.29758117675781254,-0.2900763358778626,0.83206106870229,0.7404580152671756
0.40206390380859375,-0.20357666015625,0.11825408935546876,-0.1450381679389313,1.2519083969465647,0.916030534351145
0.9451345825195313,-1.244212646484375,1.3118719482421877,0.6106870229007634,1.366412213740458,0.6641221374045801
0.5164260864257812,1.2229568481445312,-0.6556365966796875,-0.2595419847328244,0.5419847328244275,0.2900763358778626
0.9957293701171875,-0.27872039794921877,0.3802093505859375,0.32061068702290074,0.07633587786259542,0.0916030534351145
1.4019845581054688,-0.10148895263671875,-0.044008483886718755,0.7175572519083969,0.061068702290076333,0.022900763358778626
1.3798306274414063,0.38889129638671877,-0.48139892578125004,-0.5267175572519084,-0.09923664122137404,-0.0916030534351145
1.2762460327148437,0.3131488037109375,-0.4870870971679688,0.06870229007633588,0.022900763358778626,0.022900763358778626
1.2771441650390625,0.13621673583984376,-0.5430706787109375,-0.05343511450381679,0.0,-0.007633587786259542
1.2337344360351563,0.24489074707031253,-0.5272036743164062,0.0,-0.007633587786259542,-0.022900763358778626
1.1810440063476564,0.23201751708984375,-0.5685177612304688,-0.022900763358778626,-0.030534351145038167,-0.015267175572519083
1.1774514770507813,0.038020935058593754,-0.49217651367187504,0.10687022900763359,0.030534351145038167,0.0
1.1262579345703125,-0.0014968872070312501,-0.5876779174804688,0.282442748091603,-0.015267175572519083,0.007633587786259542
1.1011102294921875,0.07424560546875,-0.7259902954101562,-0.12213740458015267,-0.022900763358778626,-0.015267175572519083
1.1238629150390627,-0.008382568359375,-0.6008505249023438,-0.09923664122137404,0.007633587786259542,-0.022900763358778626
1.0951226806640626,0.10837463378906251,-0.7014413452148438,0.0,-0.07633587786259542,-0.061068702290076333
0.9086105346679688,0.137713623046875,-0.8388555908203126,-0.183206106870229,-0.07633587786259542,-0.05343511450381679
0.9903405761718751,0.15417938232421877,-0.7116201782226563,-0.061068702290076333,-0.022900763358778626,0.0
0.9909393310546876,0.17932708740234377,-0.7421566772460938,-0.0916030534351145,-0.007633587786259542,0.007633587786259542
0.8517288208007813,0.188009033203125,-0.7547305297851563,-0.16030534351145037,-0.03816793893129771,-0.022900763358778626
0.9271719360351564,0.30326934814453127,-0.6807843017578126,-0.16030534351145037,-0.03816793893129771,-0.04580152671755725
0.89813232421875,0.0814306640625,-0.6493496704101562,0.10687022900763359,-0.015267175572519083,0.022900763358778626
0.9038204956054688,0.20088226318359376,-0.7439529418945313,0.007633587786259542,-0.030534351145038167,-0.007633587786259542
0.8571176147460938,0.1454974365234375,-0.7711962890625,0.1297709923664122,0.0,-0.015267175572519083
0.839454345703125,0.10508148193359376,-0.803529052734375,0.1450381679389313,0.0,0.007633587786259542
0.8196954345703126,0.03442840576171875,-0.8116122436523437,0.07633587786259542,0.030534351145038167,0.022900763358778626
0.8238867187500001,0.0,-0.801134033203125,0.10687022900763359,0.015267175572519083,-0.007633587786259542
0.8101153564453125,-0.016465759277343752,-0.8128097534179688,0.06870229007633588,-0.015267175572519083,-0.030534351145038167
0.7984396362304688,-0.11226654052734375,-0.7990383911132813,0.06870229007633588,-0.03816793893129771,-0.030534351145038167
0.822689208984375,-0.15148498535156252,-0.8161029052734375,0.0916030534351145,-0.022900763358778626,-0.022900763358778626
0.8032296752929687,-0.18112335205078126,-0.81191162109375,0.09923664122137404,0.007633587786259542,-0.030534351145038167
0.7810757446289063,-0.168848876953125,-0.79754150390625,0.04580152671755725,0.022900763358778626,-0.007633587786259542
0.689765625,-0.2125579833984375,-0.7747888183593751,-0.030534351145038167,-0.007633587786259542,0.007633587786259542
0.8532257080078125,-0.2628533935546875,-0.7535330200195313,-0.03816793893129771,-0.007633587786259542,0.0
0.7448510742187501,-0.3514691162109375,-0.7235952758789063,0.15267175572519084,0.015267175572519083,0.0
0.7083270263671876,-0.348475341796875,-0.7358697509765625,0.20610687022900762,0.0,0.007633587786259542
0.8574169921875,-0.27812164306640624,-0.8259823608398438,0.061068702290076333,-0.030534351145038167,-0.007633587786259542
0.690963134765625,-0.40625518798828125,-0.7807763671875,0.007633587786259542,0.007633587786259542,-0.007633587786259542
0.7598199462890626,-0.38619689941406254,-0.7104226684570313,0.03816793893129771,0.007633587786259542,0.0
0.49517028808593755,-0.06077362060546875,-0.8110134887695313,0.03816793893129771,-0.09923664122137404,0.04580152671755725
0.0143701171875,-0.5014572143554688,0.3308120727539063,-0.40458015267175573,-0.8396946564885496,-0.282442748091603
-0.7364685058593751,-0.85023193359375,0.7391629028320312,-0.5954198473282443,-1.6259541984732824,-0.8473282442748091
-1.0780581665039064,-1.1187734985351563,1.0508148193359375,-0.16030534351145037,-1.6412213740458015,-1.1755725190839694
-1.1825408935546875,-1.5450869750976564,1.0577005004882813,0.5114503816793893,-1.564885496183206,-1.1221374045801527
-0.35296600341796874,-1.1187734985351563,0.8352630615234375,0.030534351145038167,-1.083969465648855,-0.9770992366412213
1.43701171875,-0.5236111450195313,0.5763015747070312,-0.030534351145038167,-0.022900763358778626,-0.10687022900763359
1.713337097167969,-0.7487429809570313,0.5152285766601563,-0.16793893129770993,0.7251908396946565,0.4427480916030534
1.7465679931640625,-1.1957135009765625,1.3753399658203125,0.12213740458015267,0.6946564885496183,0.4809160305343511
0.11885284423828125,1.6732205200195314,-1.4103671264648439,-0.6030534351145038,0.5725190839694656,0.5267175572519084
0.38290374755859374,-1.4184503173828125,1.9462527465820314,1.083969465648855,0.6564885496183206,0.09923664122137404
0.37661682128906254,-0.6289920043945313,1.6049624633789064,0.3129770992366412,-0.25190839694656486,-0.08396946564885496
0.2903961181640625,-0.04879852294921875,1.3801300048828127,0.04580152671755725,-0.6717557251908397,-0.12213740458015267
0.5493576049804688,-0.5325924682617188,1.1541000366210938,-0.1297709923664122,-0.7404580152671756,-0.366412213740458
0.9131011962890625,-0.6445596313476563,1.07296875,-0.08396946564885496,-0.7786259541984732,-0.4580152671755725
1.2457095336914064,-0.28410919189453127,0.9720785522460939,-0.20610687022900762,-0.34351145038167935,-0.2213740458015267
1.4444961547851562,-0.0652642822265625,0.8876541137695313,-0.022900763358778626,0.030534351145038167,0.07633587786259542
1.2487033081054688,-0.25267456054687504,0.741258544921875,0.030534351145038167,0.3893129770992366,0.3053435114503817
0.5469625854492188,-0.0640667724609375,0.3362008666992188,-0.1984732824427481,0.8244274809160305,0.5801526717557252
0.159268798828125,0.0622705078125,-0.00808319091796875,-0.35877862595419846,1.3969465648854962,1.0305343511450382
0.18770965576171875,-0.48409332275390626,0.5780978393554688,0.1297709923664122,1.6946564885496183,0.9618320610687022
0.9373507690429688,-1.0160870361328125,1.89685546875,0.1297709923664122,1.6564885496183206,0.8244274809160305
1.1433224487304687,-0.59635986328125,0.13861175537109377,0.1297709923664122,1.2213740458015268,0.47328244274809156
0.7319778442382813,1.8495538330078125,-0.4739144897460938,-0.9083969465648855,0.40458015267175573,0.04580152671755725
1.4157559204101564,-0.6756948852539063,0.19549346923828126,0.42748091603053434,0.21374045801526717,0.0916030534351145
1.4283297729492188,0.24998016357421876,-0.052690429687500005,0.05343511450381679,0.06870229007633588,-0.06870229007633588
1.4253359985351564,0.44607238769531254,-0.4721182250976563,0.015267175572519083,-0.03816793893129771,-0.030534351145038167
1.4121633911132814,0.317340087890625,-0.48139892578125004,-0.04580152671755725,-0.061068702290076333,0.0
1.327738952636719,0.173638916015625,-0.549656982421875,-0.0916030534351145,-0.061068702290076333,-0.05343511450381679
1.4888040161132814,0.35745666503906254,-0.559237060546875,-0.13740458015267176,-0.061068702290076333,-0.04580152671755725
1.311273193359375,0.17872833251953127,-0.46104125976562504,0.07633587786259542,0.007633587786259542,-0.007633587786259542
1.2481045532226562,0.19010467529296876,-0.5355862426757813,0.1450381679389313,-0.015267175572519083,0.015267175572519083
1.294208679199219,0.12693603515625002,-0.6113287353515625,0.061068702290076333,-0.04580152671755725,-0.007633587786259542
1.281036071777344,0.111368408203125,-0.647852783203125,0.09923664122137404,-0.03816793893129771,-0.030534351145038167
1.289718017578125,0.2903961181640625,-0.6903643798828125,-0.04580152671755725,-0.04580152671755725,-0.030534351145038167
1.1951147460937501,0.07574249267578126,-0.6472540283203125,-0.12213740458015267,-0.030534351145038167,-0.03816793893129771
1.1304492187500002,0.04071533203125,-0.5792953491210938,-0.07633587786259542,-0.08396946564885496,-0.030534351145038167
1.1472143554687502,0.1299298095703125,-0.661025390625,0.0,-0.0916030534351145,-0.04580152671755725
1.1520043945312501,0.1478924560546875,-0.7373666381835938,-0.030534351145038167,-0.061068702290076333,-0.03816793893129771
1.1094927978515625,0.22752685546875,-0.738863525390625,-0.33587786259541985,-0.022900763358778626,-0.04580152671755725
1.0053094482421876,0.03203338623046875,-0.5508544921875,-0.05343511450381679,-0.015267175572519083,-0.030534351145038167
0.9532177734375,0.09280700683593751,-0.6101312255859376,0.16793893129770993,0.0,-0.015267175572519083
0.9933343505859376,0.1191522216796875,-0.7691006469726563,0.09923664122137404,-0.022900763358778626,0.007633587786259542
0.9514215087890625,0.05598358154296875,-0.810714111328125,0.0,-0.015267175572519083,-0.007633587786259542
0.9307644653320313,0.14190490722656252,-0.7774832153320312,-0.04580152671755725,-0.007633587786259542,-0.015267175572519083
0.9298663330078125,-0.027542724609375003,-0.678988037109375,0.06870229007633588,-0.015267175572519083,-0.007633587786259542
0.9538165283203125,-0.07454498291015625,-0.7619155883789063,0.09923664122137404,-0.022900763358778626,-0.022900763358778626
0.887354736328125,-0.12663665771484375,-0.7613168334960938,0.22900763358778625,-0.015267175572519083,-0.030534351145038167
0.9298663330078125,-0.10777587890625001,-0.7801776123046875,0.09923664122137404,-0.007633587786259542,-0.022900763358778626
0.8738827514648438,-0.24938140869140626,-0.7801776123046875,0.11450381679389313,0.022900763358778626,-0.007633587786259542
0.8705895996093751,-0.2664459228515625,-0.7822732543945313,0.022900763358778626,0.015267175572519083,-0.022900763358778626
0.8131091308593751,-0.1790277099609375,-0.7753875732421875,-0.12213740458015267,-0.015267175572519083,-0.030534351145038167
0.7439529418945313,-0.38739440917968754,-0.7008425903320313,0.12213740458015267,0.030534351145038167,0.0
0.8044271850585938,-0.32602203369140625,-0.6855743408203125,0.061068702290076333,-0.015267175572519083,0.0
0.904119873046875,-0.28021728515625,-0.7849676513671875,-0.022900763358778626,-0.022900763358778626,0.007633587786259542
0.789158935546875,-0.3311114501953125,-0.7762857055664063,0.061068702290076333,0.015267175572519083,0.007633587786259542
0.8385562133789063,-0.3119512939453125,-0.7143145751953125,-0.03816793893129771,-0.015267175572519083,-0.015267175572519083
0.45116180419921875,-0.02724334716796875,-0.4302053833007813,0.0916030534351145,-0.17557251908396945,0.015267175572519083
-0.3838018798828125,-0.5840853881835938,1.0663824462890625,-0.0916030534351145,-1.2671755725190839,-0.3511450381679389
-1.8001565551757814,-1.055006103515625,0.9526190185546876,-0.3893129770992366,-1.8778625954198473,-1.2061068702290076
-1.3636642456054688,-1.0074050903320313,0.6128256225585937,0.11450381679389313,-1.4732824427480915,-1.114503816793893
0.07514373779296875,-0.6933581542968751,0.3948788452148438,-0.07633587786259542,-1.0534351145038168,-0.9618320610687022
1.9708016967773438,-0.6029461669921875,0.6194119262695312,-0.015267175572519083,0.26717557251908397,-0.09923664122137404
2.106120300292969,-0.8562194824218751,0.8646020507812501,-0.09923664122137404,0.7938931297709924,0.5572519083969465
1.6420852661132814,-1.0984158325195312,1.0882369995117187,0.3053435114503817,0.7251908396946565,0.40458015267175573
0.9630972290039063,0.50055908203125,-1.3322296142578125,-0.2748091603053435,1.083969465648855,0.6717557251908397
0.233514404296875,-1.2666659545898438,0.7155120849609375,0.9847328244274809,0.7786259541984732,0.12213740458015267
0.3975732421875,0.24878265380859377,2.1779708862304688,-0.16030534351145037,0.42748091603053434,0.030534351145038167
0.7909552001953125,-0.6562353515625,1.3906082153320314,0.3282442748091603,-0.06870229007633588,-0.0916030534351145
0.6313870239257813,-0.7173083496093751,0.9636959838867188,-0.29770992366412213,-0.5190839694656488,-0.3129770992366412
0.6819818115234375,-0.4643344116210938,0.6101312255859376,-0.10687022900763359,-0.4427480916030534,-0.46564885496183206
1.1289523315429688,-0.12034973144531251,0.7664062500000001,0.03816793893129771,0.015267175572519083,-0.09923664122137404
1.059796142578125,-0.21585113525390626,0.7909552001953125,-0.04580152671755725,0.26717557251908397,0.2900763358778626
0.6053411865234375,-0.271834716796875,0.11645782470703125,-0.06870229007633588,1.2442748091603053,0.7709923664122137
0.6164181518554688,-0.4727169799804688,0.26764343261718754,-0.1450381679389313,1.4885496183206106,0.6717557251908397
0.7903564453125,-0.3769161987304688,1.4546749877929688,0.16793893129770993,0.8931297709923663,0.5419847328244275
0.51971923828125,0.8852590942382813,-0.6667135620117188,-0.3893129770992366,0.5725190839694656,0.549618320610687
0.9750723266601563,0.3296145629882813,-0.39128631591796875,0.549618320610687,0.5267175572519084,0.022900763358778626
1.4424005126953126,0.3008743286132813,0.623902587890625,-0.3511450381679389,0.0,-0.05343511450381679
1.4193484497070312,0.38589752197265625,-0.417930908203125,-0.3129770992366412,-0.1297709923664122,-0.04580152671755725
1.2484039306640626,0.35865417480468753,-0.5700146484375,0.38167938931297707,-0.061068702290076333,-0.030534351145038167
1.5280224609375002,0.08472381591796875,-0.6352789306640625,0.2900763358778626,0.03816793893129771,0.03816793893129771
1.3585748291015625,-0.06825805664062501,-0.580792236328125,0.1450381679389313,0.04580152671755725,-0.022900763358778626
1.2265493774414062,0.14340179443359377,-0.6795867919921875,0.13740458015267176,-0.015267175572519083,0.022900763358778626
1.3669573974609375,-0.03113525390625,-0.7379653930664063,-0.07633587786259542,-0.0916030534351145,-0.007633587786259542
1.3214520263671876,0.017663269042968752,-0.7556286621093751,-0.16030534351145037,-0.06870229007633588,-0.030534351145038167
1.289418640136719,0.03592529296875,-0.6364764404296875,-0.19083969465648853,-0.04580152671755725,-0.030534351145038167
1.2355307006835938,0.024548950195312502,-0.6068380737304688,-0.1450381679389313,-0.061068702290076333,-0.05343511450381679
1.2022998046875,0.0844244384765625,-0.6676116943359376,-0.17557251908396945,-0.08396946564885496,-0.05343511450381679
1.122964782714844,0.2640509033203125,-0.7714956665039063,-0.183206106870229,-0.09923664122137404,-0.061068702290076333
1.0681787109375,0.16435821533203127,-0.7816744995117187,-0.08396946564885496,-0.03816793893129771,-0.022900763358778626
0.9418414306640626,0.4317022705078125,-0.7586224365234375,-0.3053435114503817,-0.03816793893129771,-0.015267175572519083
0.944835205078125,0.2640509033203125,-0.5930667114257813,-0.03816793893129771,-0.022900763358778626,0.015267175572519083
1.0098001098632814,0.3020718383789063,-0.6176156616210938,0.03816793893129771,-0.022900763358778626,0.007633587786259542
0.9954299926757812,0.298179931640625,-0.7068301391601562,0.11450381679389313,0.0,0.0
0.9415420532226563,0.24698638916015625,-0.7523355102539063,0.16030534351145037,0.015267175572519083,0.030534351145038167
0.9648934936523438,0.1993853759765625,-0.827479248046875,0.08396946564885496,0.007633587786259542,-0.007633587786259542
0.9244775390625001,0.1598675537109375,-0.8065228271484376,0.10687022900763359,0.022900763358778626,-0.015267175572519083
0.863404541015625,0.010777587890625,-0.8092172241210938,0.13740458015267176,-0.007633587786259542,-0.030534351145038167
0.9071136474609376,-0.013172607421875001,-0.8735833740234376,0.007633587786259542,-0.04580152671755725,-0.015267175572519083
0.9370513916015626,-0.031734008789062504,-0.8487350463867188,0.08396946564885496,-0.015267175572519083,-0.03816793893129771
0.8870553588867188,-0.10448272705078125,-0.8352630615234375,0.16030534351145037,0.007633587786259542,-0.007633587786259542
0.9011260986328126,-0.10867401123046876,-0.7906558227539063,-0.2900763358778626,-0.015267175572519083,0.007633587786259542
0.689765625,-0.11645782470703125,-0.7520361328125,0.1450381679389313,-0.015267175572519083,-0.007633587786259542
0.9337582397460938,-0.06945556640625,-0.8023315429687501,0.12213740458015267,-0.022900763358778626,-0.007633587786259542
0.7837701416015626,-0.24219635009765625,-0.8071215820312501,0.06870229007633588,-0.030534351145038167,0.0
0.8484356689453125,-0.271834716796875,-0.8346643066406251,0.16793893129770993,0.0,-0.015267175572519083
0.6957531738281251,-0.18441650390625,-0.8325686645507813,0.05343511450381679,-0.022900763358778626,0.0
0.34278717041015627,0.09280700683593751,-0.6170169067382812,-0.33587786259541985,-0.35877862595419846,-0.05343511450381679
-0.7137158203125,-0.910107421875,0.7960446166992188,-0.5954198473282443,-1.66412213740458,-0.9618320610687022
-0.6840774536132813,-0.6750961303710938,0.4293072509765625,0.46564885496183206,-1.0076335877862594,-0.9770992366412213
-0.0844244384765625,-0.8292755126953125,0.6472540283203125,0.648854961832061,-1.0,-0.6793893129770993
1.1927197265625,-1.0816506958007812,0.6319857788085937,-0.11450381679389313,-0.0916030534351145,-0.16030534351145037
1.8345849609375,-1.0256671142578127,1.1271560668945313,-0.015267175572519083,0.13740458015267176,-0.05343511450381679
1.7070501708984376,-1.0663824462890625,1.3346246337890626,0.0,0.41221374045801523,0.2748091603053435
1.101708984375,-0.4981640625,1.4169534301757813,0.282442748091603,0.38167938931297707,0.20610687022900762
0.12484039306640625,1.7199234008789064,-1.349294128417969,-0.732824427480916,0.5419847328244275,0.4580152671755725
0.54366943359375,-1.122964782714844,1.5358062744140626,1.083969465648855,0.7022900763358778,0.20610687022900762
0.508941650390625,-0.00089813232421875,2.0576211547851564,-0.4961832061068702,0.007633587786259542,-0.07633587786259542
0.41733215332031254,-0.377215576171875,1.7130377197265625,0.0916030534351145,-0.26717557251908397,-0.04580152671755725
0.48289581298828127,-0.02185455322265625,1.5459851074218751,0.3969465648854962,-0.5190839694656488,0.022900763358778626
0.28231292724609375,-0.2652484130859375,1.3989907836914064,-0.4580152671755725,-0.8473282442748091,-0.10687022900763359
0.7119195556640625,-0.789158935546875,1.1088940429687502,-0.2213740458015267,-0.8244274809160305,-0.3511450381679389
1.1064990234375,-0.5619314575195313,0.81670166015625,-0.32061068702290074,-0.6641221374045801,-0.42748091603053434
1.35797607421875,-0.08232879638671875,0.9098080444335938,-0.1450381679389313,-0.09923664122137404,-0.2213740458015267
0.9469308471679688,-0.06316864013671876,0.7643106079101563,0.09923664122137404,0.5343511450381679,0.47328244274809156
0.74964111328125,-0.08382568359375,0.39517822265625,0.022900763358778626,1.0534351145038168,0.7404580152671756
0.607137451171875,-0.21585113525390626,0.35835479736328124,0.21374045801526717,1.648854961832061,0.9389312977099237
0.8098159790039063,-0.7493417358398438,0.7164102172851563,-0.04580152671755725,1.9465648854961832,0.7633587786259541
0.49487091064453126,1.3049862670898438,-0.6882687377929688,-0.7099236641221374,0.5267175572519084,0.24427480916030533
1.24780517578125,0.3607498168945313,0.7370672607421875,-0.5190839694656488,-0.09923664122137404,-0.030534351145038167
1.5001803588867189,-0.0844244384765625,-0.5562432861328125,0.35877862595419846,0.007633587786259542,0.015267175572519083
1.3552816772460938,0.3224295043945313,-0.5625302124023438,-0.06870229007633588,0.022900763358778626,-0.05343511450381679
1.0702743530273438,0.3960763549804688,-0.29338989257812503,0.0,-0.015267175572519083,-0.022900763358778626
1.2870236206054688,-0.06316864013671876,-0.5406756591796875,0.24427480916030533,0.03816793893129771,0.015267175572519083
1.1651770019531251,0.2652484130859375,-0.5634283447265626,0.1297709923664122,-0.022900763358778626,0.0
1.1717633056640626,0.14579681396484376,-0.6026467895507813,0.022900763358778626,-0.05343511450381679,-0.007633587786259542
1.1439212036132813,0.0532891845703125,-0.6101312255859376,0.03816793893129771,-0.030534351145038167,-0.015267175572519083
1.1310479736328125,0.12364288330078126,-0.5795947265625,-0.030534351145038167,-0.04580152671755725,-0.015267175572519083
1.1085946655273438,0.0748443603515625,-0.6044430541992187,-0.07633587786259542,-0.06870229007633588,-0.05343511450381679
1.063388671875,0.0461041259765625,-0.6481521606445313,-0.10687022900763359,-0.05343511450381679,-0.030534351145038167
0.9621990966796875,-0.00029937744140625,-0.6170169067382812,0.007633587786259542,-0.007633587786259542,-0.015267175572519083
0.9382489013671875,-0.03682342529296875,-0.6080355834960938,-0.08396946564885496,-0.06870229007633588,-0.022900763358778626
0.9816586303710938,0.2721340942382813,-0.746048583984375,-0.23664122137404578,-0.07633587786259542,-0.06870229007633588
1.0008187866210938,-0.0014968872070312501,-0.5080435180664062,0.030534351145038167,-0.007633587786259542,0.015267175572519083
0.8008346557617188,0.03861968994140625,-0.6325845336914063,0.183206106870229,0.007633587786259542,-0.04580152671755725
0.8352630615234375,0.12244537353515626,-0.7298822021484376,0.10687022900763359,0.007633587786259542,0.022900763358778626
0.7954458618164063,0.08352630615234376,-0.7918533325195313,0.015267175572519083,0.022900763358778626,0.0
0.7972421264648438,0.0628692626953125,-0.741258544921875,0.04580152671755725,0.015267175572519083,-0.015267175572519083
0.7813751220703126,-0.00928070068359375,-0.7523355102539063,0.05343511450381679,0.0,-0.022900763358778626
0.8020321655273438,-0.0676593017578125,-0.7478448486328125,0.09923664122137404,0.007633587786259542,-0.007633587786259542
0.7696994018554688,-0.13921051025390627,-0.7658074951171875,0.04580152671755725,0.030534351145038167,-0.015267175572519083
0.814306640625,-0.1945953369140625,-0.7122189331054688,0.07633587786259542,0.04580152671755725,0.015267175572519083
0.7391629028320312,-0.23650817871093752,-0.724493408203125,-0.015267175572519083,0.007633587786259542,0.0
0.7256909179687501,-0.3391946411132813,-0.7176077270507812,0.17557251908396945,0.04580152671755725,-0.022900763358778626
0.7957452392578125,-0.2942880249023438,-0.7777825927734375,0.183206106870229,0.015267175572519083,0.022900763358778626
0.7981402587890626,-0.22662872314453125,-0.77838134765625,0.007633587786259542,-0.030534351145038167,0.0
0.8963360595703126,-0.3359014892578125,-0.7777825927734375,-0.030534351145038167,-0.015267175572519083,0.022900763358778626
0.650247802734375,-0.35895355224609377,-0.7840695190429688,-0.05343511450381679,0.0,0.0
0.7286846923828125,-0.32213012695312504,-0.6700067138671876,-0.022900763358778626,-0.022900763358778626,-0.022900763358778626
0.6583309936523438,0.06077362060546875,-1.0056088256835938,0.030534351145038167,-0.15267175572519084,-0.015267175572519083
-0.012274475097656251,-0.6242019653320313,0.5601351928710938,-0.3511450381679389,-0.8015267175572519,-0.29770992366412213
-0.6014492797851563,-0.7972421264648438,0.9813592529296875,-0.6870229007633587,-1.6030534351145038,-0.8091603053435115
-1.500479736328125,-0.9918374633789063,0.8652008056640625,0.0916030534351145,-1.6259541984732824,-1.0381679389312977
-0.4412823486328125,-0.9139993286132813,0.669407958984375,0.1984732824427481,-1.1603053435114503,-0.8702290076335878
0.3227288818359375,-0.7241940307617187,0.7502398681640625,0.09923664122137404,-0.5801526717557252,-0.5190839694656488
1.071471862792969,-0.729283447265625,0.7478448486328125,0.030534351145038167,-0.11450381679389313,-0.22900763358778625
1.7483642578125,-0.9475296020507813,0.8137078857421876,-0.0916030534351145,0.3129770992366412,-0.03816793893129771
1.3477972412109376,-1.0750643920898437,1.5010784912109376,0.1984732824427481,0.5419847328244275,0.183206106870229
1.148411865234375,-0.8313711547851563,1.7839901733398438,0.48854961832061067,0.47328244274809156,0.183206106870229
0.47331573486328127,1.375938720703125,-0.7295828247070313,-0.20610687022900762,0.4809160305343511,0.3053435114503817
0.116158447265625,-1.00351318359375,2.132465515136719,0.6946564885496183,0.282442748091603,-0.07633587786259542
0.39308258056640627,-0.207169189453125,1.898052978515625,-0.09923664122137404,-0.32061068702290074,-0.13740458015267176
0.6038442993164063,-0.2221380615234375,1.063388671875,-0.6030534351145038,-0.7709923664122137,-0.22900763358778625
0.8208929443359375,-0.6828799438476563,0.9816586303710938,-0.17557251908396945,-0.7709923664122137,-0.366412213740458
1.4570700073242189,-0.300574951171875,1.2184661865234376,-0.12213740458015267,-0.5801526717557252,-0.22900763358778625
1.7375866699218752,-0.30267059326171875,0.8170010375976563,0.16030534351145037,0.06870229007633588,0.16793893129770993
1.3894107055664062,-0.0814306640625,0.8337661743164063,0.1450381679389313,0.2748091603053435,0.3053435114503817
0.9801617431640626,0.07753875732421875,0.65384033203125,0.1984732824427481,0.5725190839694656,0.4427480916030534
0.4236190795898438,-0.042810974121093755,0.0161663818359375,0.2213740458015267,1.5725190839694656,0.6412213740458015
0.44307861328125003,-0.5589376831054688,0.8391549682617188,-0.06870229007633588,1.9541984732824427,0.8473282442748091
0.9038204956054688,-0.7957452392578125,1.7534536743164064,0.3511450381679389,1.5114503816793892,0.41221374045801523
0.5763015747070312,1.189127197265625,-0.4385879516601563,-0.29770992366412213,0.6030534351145038,0.19083969465648853
1.2612771606445312,-0.00239501953125,0.7200027465820313,0.13740458015267176,0.10687022900763359,0.183206106870229
1.4271322631835939,0.0508941650390625,-0.096998291015625,0.2595419847328244,-0.03816793893129771,0.030534351145038167
1.48251708984375,0.24069946289062502,-0.44188110351562504,0.061068702290076333,-0.030534351145038167,-0.061068702290076333
1.3454022216796875,0.4317022705078125,-0.4164340209960938,-0.06870229007633588,-0.022900763358778626,-0.03816793893129771
1.3454022216796875,0.34398468017578127,-0.41284149169921874,-0.04580152671755725,-0.030534351145038167,0.0
1.3633648681640627,0.22153930664062502,-0.5212161254882812,0.007633587786259542,-0.022900763358778626,-0.022900763358778626
1.2549902343750001,0.3008743286132813,-0.4604425048828125,-0.06870229007633588,-0.015267175572519083,-0.015267175572519083
1.2439132690429688,0.0556842041015625,-0.4206253051757813,0.23664122137404578,0.015267175572519083,0.015267175572519083
1.1867321777343751,0.14160552978515625,-0.6044430541992187,0.15267175572519084,-0.05343511450381679,0.0
1.2516970825195313,0.11256591796875001,-0.6658154296875001,-0.022900763358778626,-0.05343511450381679,-0.022900763358778626
1.2307406616210939,0.1694476318359375,-0.5918692016601563,-0.1297709923664122,-0.007633587786259542,-0.007633587786259542
1.0891351318359375,0.06376739501953126,-0.6089337158203125,-0.11450381679389313,-0.022900763358778626,-0.061068702290076333
1.1154803466796877,0.17453704833984376,-0.6574328613281251,-0.08396946564885496,-0.04580152671755725,-0.04580152671755725
1.0642868041992188,0.09310638427734376,-0.7044351196289063,-0.061068702290076333,-0.061068702290076333,-0.04580152671755725
1.0810519409179689,0.18441650390625,-0.6966513061523438,-0.0916030534351145,-0.061068702290076333,-0.061068702290076333
1.0585986328125,0.1874102783203125,-0.6439608764648438,-0.1450381679389313,-0.05343511450381679,-0.03816793893129771
1.0493179321289063,0.2173480224609375,-0.6700067138671876,-0.16793893129770993,-0.030534351145038167,-0.05343511450381679
0.9008267211914063,0.07843688964843751,-0.5595364379882812,0.0,0.0,0.015267175572519083
0.8726852416992188,0.15627502441406252,-0.7367678833007812,0.030534351145038167,-0.007633587786259542,-0.03816793893129771
0.9394464111328126,0.09340576171875001,-0.69216064453125,0.1450381679389313,0.022900763358778626,0.030534351145038167
0.8649014282226563,-0.026345214843750003,-0.7382647705078126,0.061068702290076333,0.030534351145038167,0.05343511450381679
0.9145980834960938,-0.03742218017578125,-0.7556286621093751,0.1450381679389313,0.007633587786259542,-0.007633587786259542
0.8936416625976563,-0.0401165771484375,-0.79275146484375,0.0916030534351145,-0.030534351145038167,-0.03816793893129771
0.863404541015625,-0.1095721435546875,-0.8128097534179688,0.05343511450381679,-0.030534351145038167,-0.04580152671755725
0.8666976928710938,-0.1299298095703125,-0.7921527099609376,0.06870229007633588,0.007633587786259542,-0.015267175572519083
0.7873626708984376,-0.2149530029296875,-0.8229885864257813,-0.061068702290076333,0.022900763358778626,0.0
0.8125103759765625,-0.209564208984375,-0.6834786987304687,-0.19083969465648853,-0.022900763358778626,-0.007633587786259542
0.8601113891601563,-0.40386016845703127,-0.6673123168945313,0.20610687022900762,0.03816793893129771,0.007633587786259542
0.6661148071289062,-0.5014572143554688,-0.6682104492187501,0.35877862595419846,0.0,0.0
0.9810598754882813,-0.31344818115234374,-0.7777825927734375,0.15267175572519084,-0.04580152671755725,-0.030534351145038167
0.7583230590820312,-0.350870361328125,-0.7966433715820312,0.16030534351145037,-0.022900763358778626,0.0
-0.04071533203125,-0.928070068359375,0.8867559814453125,-0.37404580152671757,-0.9847328244274809,-0.4427480916030534
-0.9726773071289063,-1.1307485961914063,0.8208929443359375,-0.4427480916030534,-1.6870229007633588,-1.015267175572519
-1.3097763061523438,-1.1067984008789062,0.5182223510742188,-0.08396946564885496,-1.5572519083969465,-1.129770992366412
-0.7319778442382813,-0.9945318603515626,0.277822265625,0.11450381679389313,-1.2748091603053435,-1.015267175572519
0.4314028930664063,-0.7430548095703126,0.6035449218750001,0.13740458015267176,-0.7251908396946565,-0.6106870229007634
2.1279748535156253,-0.8029302978515626,0.8427474975585938,0.007633587786259542,0.32061068702290074,0.15267175572519084
1.7962646484375,-1.174757080078125,1.1765533447265626,0.47328244274809156,0.564885496183206,0.2748091603053435
0.21525238037109376,-1.9788848876953127,0.7984396362304688,1.1068702290076335,0.6870229007633587,0.19083969465648853
0.7068301391601562,-0.9951306152343751,1.7657281494140626,0.03816793893129771,-0.03816793893129771,-0.07633587786259542
0.49786468505859377,-0.0580792236328125,1.6031661987304688,0.19083969465648853,-0.3511450381679389,-0.08396946564885496
0.6738986206054688,-0.25387207031250003,1.6268170166015625,0.42748091603053434,-0.5954198473282443,-0.13740458015267176
0.7780819702148438,-0.31674133300781254,1.40108642578125,-0.4351145038167939,-0.7480916030534351,-0.21374045801526717
1.3349240112304688,-0.6496490478515625,1.0822494506835938,-0.19083969465648853,-0.732824427480916,-0.3282442748091603
1.7106427001953126,-0.13980926513671876,0.8316705322265625,-0.16793893129770993,-0.22900763358778625,-0.13740458015267176
1.4603631591796875,0.039517822265625,0.6110293579101563,0.04580152671755725,0.3893129770992366,0.35877862595419846
0.3622467041015625,0.21674926757812502,0.1011895751953125,0.06870229007633588,1.083969465648855,0.732824427480916
-0.27153533935546875,-0.11526031494140626,-0.4739144897460938,0.015267175572519083,1.7633587786259541,1.015267175572519
0.33709899902343754,-1.2867242431640626,2.379451904296875,0.7557251908396946,1.8854961832061068,0.7557251908396946
0.25626708984375,1.8010546875000002,-0.6176156616210938,-1.1755725190839694,0.7022900763358778,0.4351145038167939
1.2214599609375,-0.07514373779296875,0.4640350341796875,0.5190839694656488,0.37404580152671757,0.2595419847328244
1.4980847167968752,-0.0544866943359375,0.3745211791992188,-0.13740458015267176,-0.007633587786259542,-0.030534351145038167
1.5214361572265627,0.14459930419921876,-0.2652484130859375,-0.08396946564885496,-0.030534351145038167,-0.10687022900763359
1.4678475952148438,0.3730242919921875,-0.33440460205078126,0.09923664122137404,-0.030534351145038167,-0.007633587786259542
1.4301260375976563,0.10867401123046876,-0.40745269775390625,-0.022900763358778626,-0.03816793893129771,-0.03816793893129771
1.4795233154296876,0.23920257568359377,-0.305364990234375,0.05343511450381679,0.0,-0.015267175572519083
1.4163546752929688,-0.0161663818359375,-0.40236328125000004,0.22900763358778625,0.0,0.007633587786259542
1.3148657226562501,0.0041912841796875,-0.5248086547851563,-0.022900763358778626,-0.04580152671755725,-0.015267175572519083
1.4277310180664062,0.01047821044921875,-0.5047503662109375,-0.03816793893129771,-0.022900763358778626,0.030534351145038167
1.3118719482421877,0.0221539306640625,-0.4721182250976563,-0.0916030534351145,-0.030534351145038167,0.007633587786259542
1.3394146728515626,0.012573852539062501,-0.47900390625,-0.015267175572519083,-0.04580152671755725,-0.030534351145038167
1.2792398071289064,0.10268646240234376,-0.5242098999023438,-0.10687022900763359,-0.04580152671755725,-0.04580152671755725
1.2091854858398439,0.04999603271484375,-0.55803955078125,-0.1297709923664122,-0.05343511450381679,-0.022900763358778626
1.1741583251953125,0.04101470947265625,-0.6050418090820313,-0.13740458015267176,-0.08396946564885496,-0.04580152671755725
1.2475057983398439,0.06735992431640625,-0.662222900390625,-0.061068702290076333,-0.030534351145038167,-0.015267175572519083
1.1067984008789062,0.19130218505859375,-0.61552001953125,-0.16030534351145037,-0.05343511450381679,-0.03816793893129771
1.1735595703125001,0.08472381591796875,-0.6532415771484376,-0.11450381679389313,0.015267175572519083,-0.061068702290076333
1.0603948974609376,-0.01466949462890625,-0.5278024291992188,0.022900763358778626,0.030534351145038167,0.030534351145038167
1.1133847045898437,0.1484912109375,-0.6631210327148438,-0.0916030534351145,-0.03816793893129771,-0.03816793893129771
1.102906494140625,0.00928070068359375,-0.6140231323242188,0.04580152671755725,0.0,0.022900763358778626
1.0145901489257814,0.07095245361328126,-0.7140151977539063,-0.007633587786259542,0.0,0.022900763358778626
1.0487191772460938,0.0568817138671875,-0.7047344970703125,0.03816793893129771,-0.015267175572519083,0.0
1.0238708496093751,0.09490264892578125,-0.7810757446289063,0.08396946564885496,-0.015267175572519083,-0.022900763358778626
0.9562115478515626,0.08831634521484376,-0.8196954345703126,0.04580152671755725,-0.022900763358778626,-0.05343511450381679
0.9613009643554687,0.0161663818359375,-0.7571255493164063,-0.022900763358778626,-0.030534351145038167,-0.030534351145038167
0.9669891357421876,-0.11047027587890626,-0.7711962890625,0.09923664122137404,-0.022900763358778626,-0.022900763358778626
0.8903485107421876,-0.17603393554687502,-0.7322772216796876,0.1297709923664122,0.015267175572519083,-0.007633587786259542
0.7421566772460938,-0.257464599609375,-0.7840695190429688,-0.030534351145038167,-0.05343511450381679,-0.015267175572519083
0.908909912109375,-0.2508782958984375,-0.6295907592773438,0.030534351145038167,0.0,0.015267175572519083
0.7098239135742188,-0.29758117675781254,-0.6700067138671876,0.16793893129770993,-0.015267175572519083,0.030534351145038167
1.04183349609375,-0.46523254394531255,-0.643062744140625,0.2595419847328244,-0.030534351145038167,-0.04580152671755725
0.748443603515625,-0.31763946533203125,-0.6140231323242188,0.08396946564885496,0.015267175572519083,0.007633587786259542
0.9050180053710938,-0.5182223510742188,-0.6017486572265626,0.08396946564885496,0.0,-0.007633587786259542
0.7490423583984376,-0.4355941772460938,-0.5954617309570313,-0.022900763358778626,-0.022900763358778626,-0.030534351145038167
0.67779052734375,-0.9921368408203125,-0.37272491455078127,0.6412213740458015,0.061068702290076333,-0.007633587786259542
0.11735595703125,-0.15537689208984376,-0.03592529296875,-0.9541984732824427,-0.8778625954198473,-0.15267175572519084
-0.08711883544921875,-0.9116043090820313,0.6209088134765626,-0.33587786259541985,-1.366412213740458,-0.4961832061068702
-0.7682025146484376,-0.8690927124023438,0.2125579833984375,-0.4809160305343511,-1.4122137404580153,-0.8625954198473282
-0.49247589111328127,-0.8666976928710938,0.631087646484375,-0.03816793893129771,-1.2595419847328244,-0.9618320610687022
0.16705261230468751,-1.0346484375,0.6364764404296875,0.25190839694656486,-0.8473282442748091,-0.6259541984732824
0.8289761352539063,-0.8583151245117188,0.47181884765625004,-0.2748091603053435,-0.3129770992366412,-0.3053435114503817
1.7573455810546876,-1.3115725708007813,1.5983761596679689,0.17557251908396945,0.41221374045801523,0.24427480916030533
1.3962963867187501,-0.9924362182617188,1.4322216796875,0.549618320610687,0.41221374045801523,0.13740458015267176
0.26884094238281253,1.629810791015625,-1.4612612915039063,-1.0076335877862594,0.6183206106870229,0.5114503816793893
0.5110372924804688,-0.6113287353515625,2.0758831787109377,0.4427480916030534,0.24427480916030533,0.015267175572519083
0.59396484375,-0.32362701416015627,1.6414865112304688,-0.2213740458015267,-0.16030534351145037,-0.08396946564885496
0.2245330810546875,-0.1359173583984375,1.357676696777344,-0.21374045801526717,-0.5419847328244275,-0.12213740458015267
0.9672885131835938,-0.844244384765625,1.268162841796875,-0.3282442748091603,-0.6717557251908397,-0.37404580152671757
1.5531701660156252,-0.6122268676757813,1.2846286010742187,-0.08396946564885496,-0.6641221374045801,-0.41221374045801523
1.6211288452148438,-0.21615051269531252,0.9469308471679688,0.061068702290076333,-0.19083969465648853,-0.03816793893129771
1.5453863525390625,-0.16705261230468751,0.8217910766601563,0.11450381679389313,0.12213740458015267,0.1450381679389313
0.3933819580078125,0.0975970458984375,0.3598516845703125,0.07633587786259542,0.6412213740458015,0.5114503816793893
0.02844085693359375,-0.15208374023437501,-0.08801696777343751,-0.07633587786259542,1.8549618320610686,0.9312977099236641
0.9657916259765625,-0.7649093627929688,2.2387445068359377,-0.030534351145038167,1.3282442748091603,0.4427480916030534
0.17812957763671877,0.9696835327148438,-0.44577301025390625,0.1984732824427481,1.015267175572519,0.6030534351145038
1.2645703125,0.16495697021484376,0.25896148681640624,-0.5267175572519084,0.22900763358778625,0.022900763358778626
1.46335693359375,0.12124786376953126,0.11166778564453125,-0.21374045801526717,0.05343511450381679,-0.12213740458015267
1.471739501953125,0.7074288940429688,-0.2568658447265625,0.0,-0.05343511450381679,0.03816793893129771
1.4603631591796875,0.33290771484375004,-0.48828460693359377,-0.022900763358778626,-0.061068702290076333,0.015267175572519083
1.469344482421875,0.39817199707031253,-0.5523513793945313,-0.34351145038167935,-0.03816793893129771,-0.07633587786259542
1.3702505493164063,0.5897735595703125,-0.4601431274414063,-0.12213740458015267,-0.007633587786259542,0.0
1.392404479980469,0.22842498779296877,-0.34338592529296874,0.10687022900763359,0.04580152671755725,0.03816793893129771
1.3451028442382813,0.23171813964843752,-0.43798919677734377,0.23664122137404578,0.030534351145038167,0.04580152671755725
1.4121633911132814,0.27572662353515626,-0.619112548828125,0.007633587786259542,-0.07633587786259542,-0.030534351145038167
1.3247451782226562,0.25147705078125,-0.6161187744140625,0.015267175572519083,-0.04580152671755725,-0.030534351145038167
1.3442047119140625,0.23561004638671876,-0.63947021484375,-0.11450381679389313,-0.05343511450381679,-0.03816793893129771
1.2436138916015627,0.19878662109375,-0.611927490234375,-0.0916030534351145,-0.03816793893129771,-0.061068702290076333
1.1780502319335937,0.19878662109375,-0.6816824340820313,-0.11450381679389313,-0.07633587786259542,-0.05343511450381679
1.174757080078125,0.2820135498046875,-0.7490423583984376,-0.10687022900763359,-0.03816793893129771,-0.061068702290076333
1.1858340454101564,0.3335064697265625,-0.6870712280273438,-0.21374045801526717,-0.015267175572519083,-0.015267175572519083
1.2088861083984375,0.24638763427734375,-0.6421646118164063,-0.21374045801526717,0.015267175572519083,-0.030534351145038167
1.0050100708007812,0.054187316894531254,-0.559237060546875,-0.022900763358778626,0.015267175572519083,0.022900763358778626
1.1972103881835938,0.267044677734375,-0.6008505249023438,-0.030534351145038167,-0.030534351145038167,-0.022900763358778626
1.0535092163085937,0.17812957763671877,-0.7116201782226563,0.1450381679389313,-0.007633587786259542,-0.007633587786259542
1.1322454833984374,0.22243743896484375,-0.7691006469726563,0.09923664122137404,0.0,0.05343511450381679
1.0582992553710937,0.15956817626953126,-0.7897576904296876,0.030534351145038167,-0.015267175572519083,0.030534351145038167
0.9705816650390625,0.04580474853515625,-0.70892578125,0.10687022900763359,-0.030534351145038167,-0.05343511450381679
0.9083111572265625,0.025746459960937502,-0.7954458618164063,0.16030534351145037,-0.022900763358778626,-0.03816793893129771
0.9837542724609375,-0.02155517578125,-0.8262817382812501,0.07633587786259542,-0.015267175572519083,0.0
0.9894424438476563,-0.09041198730468751,-0.8289761352539063,0.030534351145038167,0.015267175572519083,0.007633587786259542
0.9954299926757812,-0.18950592041015626,-0.6963519287109375,0.022900763358778626,0.022900763358778626,-0.015267175572519083
1.0220745849609376,-0.21794677734375,-0.7002438354492188,0.10687022900763359,0.03816793893129771,-0.03816793893129771
0.7131170654296876,-0.18561401367187502,-0.8628057861328126,-0.07633587786259542,-0.05343511450381679,-0.007633587786259542
0.7131170654296876,-0.18561401367187502,-0.8628057861328126,-0.07633587786259542,-0.05343511450381679,-0.007633587786259542
1.0439291381835938,-0.13801300048828125,-0.7505392456054688,0.04580152671755725,-0.07633587786259542,-0.05343511450381679
1.0439291381835938,-0.13801300048828125,-0.7505392456054688,0.04580152671755725,-0.07633587786259542,-0.05343511450381679
0.7924520874023437,-0.14639556884765625,-0.7981402587890626,-0.061068702290076333,-0.04580152671755725,-0.022900763358778626
0.032332763671875,-0.48828460693359377,0.4981640625,-0.2595419847328244,-0.7099236641221374,-0.19083969465648853
0.032332763671875,-0.48828460693359377,0.4981640625,-0.2595419847328244,-0.7099236641221374,-0.19083969465648853
-1.0571017456054688,-1.052611083984375,0.5568420410156251,-0.030534351145038167,-1.4732824427480915,-1.381679389312977
-0.3511697387695313,-1.0795550537109375,0.3745211791992188,0.3511450381679389,-1.282442748091603,-1.1908396946564885
0.7200027465820313,-0.8792715454101563,0.25956024169921876,-0.0916030534351145,-0.6641221374045801,-0.6335877862595419
0.7200027465820313,-0.8792715454101563,0.25956024169921876,-0.0916030534351145,-0.6641221374045801,-0.6335877862595419
1.8441650390625002,-0.67779052734375,0.3050656127929688,-0.04580152671755725,0.6641221374045801,0.3282442748091603
1.591490478515625,-1.2205618286132813,0.9217831420898438,0.6412213740458015,0.8167938931297709,0.37404580152671757
1.9007473754882813,-0.6316864013671876,-0.12184661865234375,-0.2213740458015267,1.3435114503816794,0.1297709923664122
0.21315673828125,-0.12214599609375,0.6664141845703125,0.42748091603053434,0.5572519083969465,0.022900763358778626
0.44457550048828126,-0.6873706054687501,2.4060964965820313,0.05343511450381679,0.12213740458015267,-0.015267175572519083
0.5736071777343751,-0.42002655029296876,1.5576608276367188,-0.061068702290076333,-0.2900763358778626,-0.09923664122137404
0.44697052001953125,-0.2700384521484375,1.172362060546875,0.183206106870229,-0.4351145038167939,0.0
0.7131170654296876,-0.6427633666992187,0.890947265625,-0.7404580152671756,-0.7022900763358778,-0.4809160305343511
1.2983999633789063,-0.7990383911132813,1.3046868896484376,0.1984732824427481,-0.7709923664122137,-0.5114503816793893
1.1457174682617188,-0.11226654052734375,0.5670208740234375,-0.015267175572519083,-0.24427480916030533,-0.2748091603053435
1.32205078125,-0.12214599609375,0.7152127075195313,0.05343511450381679,0.22900763358778625,0.2213740458015267
0.700543212890625,-0.099393310546875,0.39248382568359375,0.030534351145038167,0.564885496183206,0.4427480916030534
0.07214996337890625,-0.14130615234375002,0.1933978271484375,-0.0916030534351145,1.5419847328244274,0.9770992366412213
0.2736309814453125,-0.8196954345703126,1.1906240844726563,0.16030534351145037,1.732824427480916,0.916030534351145
1.3861175537109376,-0.6221063232421875,1.4181509399414063,0.09923664122137404,1.3511450381679388,0.549618320610687
0.3469784545898438,1.3684542846679688,-0.7705975341796876,-0.46564885496183206,0.6870229007633587,0.42748091603053434
1.0876382446289063,-0.32602203369140625,0.3715274047851563,0.549618320610687,0.5267175572519084,0.08396946564885496
1.5055691528320314,0.1526824951171875,0.36284545898437504,-0.5419847328244275,-0.015267175572519083,-0.09923664122137404
1.3834231567382813,0.5367837524414063,-0.6152206420898437,0.20610687022900762,-0.07633587786259542,-0.030534351145038167
1.4373110961914064,0.5289999389648438,-0.7014413452148438,-0.05343511450381679,-0.05343511450381679,0.007633587786259542
1.3684542846679688,0.20746856689453125,-0.5445675659179687,0.03816793893129771,-0.007633587786259542,-0.03816793893129771
1.3582754516601563,0.055384826660156254,-0.4355941772460938,0.20610687022900762,0.03816793893129771,0.007633587786259542
1.3163626098632812,0.1287322998046875,-0.6265969848632813,0.16030534351145037,-0.05343511450381679,0.022900763358778626
1.3648617553710938,0.0700543212890625,-0.7229965209960938,-0.07633587786259542,-0.061068702290076333,-0.03816793893129771
1.2843292236328125,-0.03263214111328125,-0.5885760498046876,0.10687022900763359,-0.015267175572519083,-0.04580152671755725
1.2484039306640626,-0.013471984863281251,-0.5586383056640625,0.2900763358778626,-0.007633587786259542,-0.015267175572519083
1.1834390258789063,-0.0209564208984375,-0.5969586181640625,-0.2748091603053435,-0.05343511450381679,-0.04580152671755725
1.2645703125,-0.13322296142578124,-0.6134243774414063,0.015267175572519083,-0.03816793893129771,-0.030534351145038167
1.1552975463867188,-0.024548950195312502,-0.6280938720703125,-0.05343511450381679,-0.06870229007633588,-0.022900763358778626
1.2037966918945313,-0.13112731933593752,-0.6230044555664063,0.08396946564885496,-0.07633587786259542,-0.030534351145038167
1.2615765380859376,-0.17004638671875,-0.5742059326171876,0.04580152671755725,-0.04580152671755725,0.015267175572519083
1.0571017456054688,-0.1293310546875,-0.5912704467773438,-0.05343511450381679,0.0,-0.03816793893129771
1.0807525634765625,-0.22183868408203125,-0.6041436767578126,-0.06870229007633588,0.007633587786259542,0.007633587786259542
1.0220745849609376,-0.11226654052734375,-0.5736071777343751,0.030534351145038167,0.0,-0.022900763358778626
1.0223739624023438,-0.2233355712890625,-0.6029461669921875,0.1297709923664122,0.0,0.015267175572519083
1.0065069580078125,-0.3047662353515625,-0.6715036010742188,0.1297709923664122,0.015267175572519083,0.03816793893129771
1.07296875,-0.2942880249023438,-0.6747967529296875,0.11450381679389313,0.0,-0.022900763358778626
1.026265869140625,-0.27542724609375,-0.6556365966796875,0.1450381679389313,-0.015267175572519083,-0.022900763358778626
1.0151889038085937,-0.43918670654296876,-0.6343807983398437,0.15267175572519084,-0.015267175572519083,-0.015267175572519083
0.983155517578125,-0.506546630859375,-0.6271957397460938,0.04580152671755725,-0.015267175572519083,-0.03816793893129771
0.9295669555664063,-0.5152285766601563,-0.6457571411132813,-0.015267175572519083,-0.04580152671755725,0.0
0.8669970703125001,-0.4110452270507813,-0.6924600219726563,-0.24427480916030533,-0.0916030534351145,-0.03816793893129771
0.9843530273437501,-0.3227288818359375,-0.6667135620117188,-0.2900763358778626,-0.030534351145038167,-0.06870229007633588
0.8017327880859375,-0.29788055419921877,-0.6421646118164063,0.19083969465648853,-0.03816793893129771,0.030534351145038167
0.8837622070312501,-0.48529083251953126,-0.7714956665039063,-0.16030534351145037,-0.030534351145038167,-0.015267175572519083
0.8214916992187501,-0.43828857421875,-0.6768923950195312,0.06870229007633588,0.05343511450381679,-0.015267175572519083
0.8364605712890626,-0.24578887939453126,-0.7556286621093751,-0.08396946564885496,0.007633587786259542,-0.015267175572519083
0.8894503784179688,-0.29338989257812503,-0.7137158203125,-0.17557251908396945,-0.007633587786259542,-0.015267175572519083
0.8702902221679688,-0.33440460205078126,-0.7301815795898438,0.030534351145038167,-0.007633587786259542,0.0
0.69216064453125,0.06256988525390625,-0.5837860107421875,-0.04580152671755725,-0.13740458015267176,0.015267175572519083
-0.3008743286132813,-0.116158447265625,0.7301815795898438,0.015267175572519083,-1.0,-0.10687022900763359
-1.0427316284179688,-0.5562432861328125,0.5942642211914063,-0.4580152671755725,-1.7099236641221374,-0.4198473282442748
-1.2600796508789063,-0.7373666381835938,0.3143463134765625,-0.6564885496183206,-1.8473282442748091,-0.732824427480916
-0.3565585327148438,-0.8113128662109376,0.980760498046875,-0.15267175572519084,-1.1221374045801527,-0.9847328244274809
0.6843768310546875,-0.5897735595703125,0.6924600219726563,0.07633587786259542,-0.17557251908396945,-0.38167938931297707
1.7160314941406252,-1.0972183227539063,0.7825726318359375,-0.030534351145038167,0.5572519083969465,0.05343511450381679
1.5385006713867189,-1.3289364624023439,1.5486795043945314,0.32061068702290074,0.5343511450381679,0.16030534351145037
1.7450711059570314,-0.5523513793945313,1.5534695434570314,0.46564885496183206,0.6030534351145038,0.03816793893129771
0.19249969482421875,-0.8364605712890626,1.5543676757812501,0.6641221374045801,0.3969465648854962,-0.05343511450381679
0.5873785400390625,-0.28800109863281254,1.5447875976562502,-0.04580152671755725,-0.015267175572519083,-0.061068702290076333
0.6481521606445313,-0.3215313720703125,1.4732363891601563,0.12213740458015267,-0.05343511450381679,-0.06870229007633588
0.4044589233398438,-0.10388397216796875,1.567540283203125,0.13740458015267176,-0.35877862595419846,-0.1450381679389313
0.6604266357421875,-0.7023394775390626,1.6016693115234375,-0.6106870229007634,-0.6030534351145038,-0.3282442748091603
1.1666738891601562,-0.7382647705078126,1.2585827636718752,-0.022900763358778626,-0.8702290076335878,-0.4427480916030534
1.507365417480469,-0.0221539306640625,0.746048583984375,-0.06870229007633588,-0.0916030534351145,-0.0916030534351145
1.4432986450195313,-0.10508148193359376,0.748443603515625,0.10687022900763359,0.29770992366412213,0.282442748091603
0.9409432983398438,0.1682501220703125,0.7074288940429688,0.35877862595419846,0.7480916030534351,0.4427480916030534
0.5284011840820313,-0.27153533935546875,0.017962646484375,0.2595419847328244,1.6259541984732824,0.5114503816793893
0.39008880615234376,-0.7750881958007813,0.5816903686523438,0.15267175572519084,1.984732824427481,0.3511450381679389
0.7640112304687501,-0.7002438354492188,2.113305358886719,0.23664122137404578,1.4351145038167938,0.37404580152671757
0.8702902221679688,0.288599853515625,0.025746459960937502,0.7404580152671756,0.7175572519083969,-0.10687022900763359
1.392703857421875,-0.3694317626953125,0.13142669677734375,0.08396946564885496,-0.06870229007633588,0.030534351145038167
1.6205300903320314,0.0209564208984375,-0.34817596435546877,0.12213740458015267,-0.007633587786259542,-0.03816793893129771
1.370849304199219,0.15148498535156252,-0.47750701904296877,-0.08396946564885496,-0.015267175572519083,-0.04580152671755725
1.4103671264648439,0.0963995361328125,-0.4032614135742188,0.030534351145038167,0.030534351145038167,0.05343511450381679
1.4558724975585937,-0.0161663818359375,-0.4305047607421875,-0.015267175572519083,0.015267175572519083,-0.007633587786259542
1.3400134277343752,0.159268798828125,-0.4846920776367188,-0.030534351145038167,-0.030534351145038167,-0.007633587786259542
1.2801379394531252,-0.06586303710937501,-0.28500732421875,-0.015267175572519083,0.015267175572519083,-0.022900763358778626
1.4316229248046877,-0.13741424560546875,-0.38320312500000003,0.2595419847328244,-0.022900763358778626,0.0
1.2184661865234376,-0.05478607177734375,-0.6894662475585938,0.007633587786259542,-0.05343511450381679,0.007633587786259542
1.2849279785156251,-0.02245330810546875,-0.5760021972656251,-0.10687022900763359,-0.015267175572519083,0.0
1.2103829956054688,-0.058977355957031255,-0.5044509887695313,-0.03816793893129771,-0.03816793893129771,-0.015267175572519083
1.2229568481445312,-0.02365081787109375,-0.5685177612304688,-0.061068702290076333,-0.03816793893129771,-0.04580152671755725
1.1406280517578125,0.03203338623046875,-0.6029461669921875,-0.08396946564885496,-0.04580152671755725,-0.04580152671755725
1.1726614379882814,0.035326538085937505,-0.6508465576171876,-0.183206106870229,-0.1297709923664122,-0.05343511450381679
1.0750643920898437,-0.056282958984375006,-0.7696994018554688,-0.16030534351145037,-0.08396946564885496,-0.0916030534351145
1.1160791015625,0.20357666015625,-0.67779052734375,-0.19083969465648853,-0.03816793893129771,-0.007633587786259542
1.1463162231445314,0.01466949462890625,-0.7014413452148438,-0.2595419847328244,-0.015267175572519083,-0.061068702290076333
1.011895751953125,0.07873626708984376,-0.48289581298828127,0.007633587786259542,0.015267175572519083,0.03816793893129771
1.0328521728515625,0.03143463134765625,-0.6676116943359376,-0.04580152671755725,-0.03816793893129771,0.007633587786259542
1.0259664916992188,0.044307861328125,-0.7463479614257813,0.07633587786259542,0.0,-0.03816793893129771
0.9837542724609375,0.118553466796875,-0.719703369140625,0.0916030534351145,0.007633587786259542,0.007633587786259542
0.9735754394531251,0.012873229980468751,-0.7337741088867188,0.0916030534351145,0.007633587786259542,0.05343511450381679
0.9912387084960937,0.03143463134765625,-0.8460406494140625,-0.030534351145038167,-0.015267175572519083,-0.022900763358778626
0.9062155151367188,0.14100677490234376,-0.8268804931640625,0.05343511450381679,-0.015267175572519083,-0.030534351145038167
0.9035211181640626,-0.031734008789062504,-0.844244384765625,0.015267175572519083,-0.015267175572519083,-0.015267175572519083
0.9430389404296875,-0.060174865722656255,-0.8379574584960938,0.05343511450381679,0.015267175572519083,-0.007633587786259542
0.8744815063476563,-0.08801696777343751,-0.798739013671875,0.09923664122137404,0.030534351145038167,0.015267175572519083
0.8969348144531251,-0.12304412841796876,-0.849034423828125,-0.061068702290076333,-0.022900763358778626,0.007633587786259542
0.8146060180664063,-0.2697390747070313,-0.6900650024414063,0.0916030534351145,0.015267175572519083,0.0
0.6355783081054688,-0.2601589965820313,-0.722098388671875,0.22900763358778625,-0.03816793893129771,0.007633587786259542
1.1618838500976563,-0.0149688720703125,-0.9011260986328126,-0.030534351145038167,-0.07633587786259542,-0.022900763358778626
0.6691085815429688,-0.355660400390625,-0.8071215820312501,-0.11450381679389313,-0.007633587786259542,0.015267175572519083
0.8777746582031251,-0.31255004882812504,-0.6966513061523438,0.21374045801526717,0.007633587786259542,0.007633587786259542
0.762813720703125,-0.26494903564453126,-0.7696994018554688,-0.007633587786259542,-0.04580152671755725,-0.05343511450381679
0.7933502197265625,-0.3526666259765625,-0.7565267944335938,0.07633587786259542,-0.030534351145038167,-0.022900763358778626
0.5409750366210938,-0.010777587890625,-0.6562353515625,0.11450381679389313,-0.16030534351145037,0.06870229007633588
-0.6122268676757813,-0.547261962890625,0.87418212890625,-0.5877862595419847,-1.580152671755725,-0.6946564885496183
-1.3103750610351563,-1.0963201904296875,0.8912466430664063,-0.3893129770992366,-1.9389312977099236,-1.1374045801526718
-1.0870394897460938,-1.140029296875,0.6876699829101562,-0.030534351145038167,-1.5572519083969465,-1.1450381679389312
-0.3155438232421875,-0.9466314697265625,0.7247927856445313,0.061068702290076333,-1.2595419847328244,-1.0534351145038168
0.6259982299804688,-0.8131091308593751,0.5245092773437501,-0.007633587786259542,-0.42748091603053434,-0.5572519083969465
1.4471905517578125,-0.6487509155273438,0.39278320312500004,0.04580152671755725,0.05343511450381679,-0.17557251908396945
1.9489471435546877,-1.0154882812500001,0.767603759765625,0.11450381679389313,0.7862595419847328,0.41221374045801523
1.6860937500000002,-1.179547119140625,1.8303936767578126,0.7404580152671756,0.5801526717557252,0.26717557251908397
-0.061671752929687504,-1.1310479736328125,1.44419677734375,0.648854961832061,0.48854961832061067,-0.1297709923664122
0.5499563598632813,-0.3119512939453125,2.258204040527344,0.1450381679389313,0.2595419847328244,-0.015267175572519083
0.7286846923828125,-0.41882904052734377,1.5462844848632813,0.2213740458015267,-0.05343511450381679,-0.022900763358778626
0.540076904296875,0.19130218505859375,1.3403128051757813,-0.183206106870229,-0.2900763358778626,-0.03816793893129771
0.5574407958984375,-0.43768981933593754,1.311273193359375,-0.1450381679389313,-0.41221374045801523,-0.17557251908396945
1.0238708496093751,-1.02746337890625,1.1163784790039064,-0.04580152671755725,-0.7404580152671756,-0.6106870229007634
1.5067666625976563,-0.26734405517578125,0.9496252441406251,-0.12213740458015267,-0.3511450381679389,-0.22900763358778625
1.4283297729492188,0.1011895751953125,0.810714111328125,-0.1297709923664122,-0.03816793893129771,0.06870229007633588
1.112486572265625,-0.11047027587890626,0.50055908203125,-0.007633587786259542,0.34351145038167935,0.35877862595419846
0.4763095092773438,0.09250762939453125,0.015567626953125,-0.183206106870229,0.916030534351145,0.6106870229007634
0.22722747802734375,-0.6268963623046875,-0.17214202880859375,0.061068702290076333,1.984732824427481,0.8396946564885496
0.5586383056640625,-0.8385562133789063,1.2936099243164063,-0.3511450381679389,1.8931297709923662,0.6870229007633587
0.0383203125,-0.4290078735351563,0.6427633666992187,-0.08396946564885496,1.2595419847328244,0.3282442748091603
1.0490185546875002,0.011675720214843751,0.62031005859375,-0.09923664122137404,0.022900763358778626,-0.04580152671755725
1.4810202026367187,0.04819976806640625,-0.27991790771484376,0.030534351145038167,-0.10687022900763359,-0.08396946564885496
1.4352154541015625,-0.14400054931640627,-0.5544470214843751,-0.022900763358778626,-0.03816793893129771,-0.1450381679389313
1.304088134765625,-0.02155517578125,-0.38200561523437504,0.007633587786259542,-0.04580152671755725,0.04580152671755725
1.3651611328125002,-0.010777587890625,-0.48109954833984375,-0.03816793893129771,0.0,-0.061068702290076333
1.277742919921875,0.15298187255859375,-0.36284545898437504,-0.007633587786259542,-0.030534351145038167,-0.030534351145038167
1.2361294555664064,0.040415954589843754,-0.488583984375,-0.06870229007633588,-0.022900763358778626,0.0
1.2253518676757813,-0.12005035400390626,-0.36823425292968753,0.07633587786259542,0.05343511450381679,0.015267175572519083
1.229842529296875,-0.03203338623046875,-0.4544549560546875,0.24427480916030533,-0.030534351145038167,0.03816793893129771
1.1576925659179689,-0.06436614990234375,-0.6433621215820313,0.015267175572519083,-0.08396946564885496,-0.007633587786259542
1.2241543579101564,-0.055384826660156254,-0.6242019653320313,-0.03816793893129771,-0.03816793893129771,-0.015267175572519083
1.1403286743164063,0.09131011962890626,-0.5822891235351563,-0.21374045801526717,-0.06870229007633588,0.0
1.0606942749023438,-0.20178039550781252,-0.5355862426757813,-0.08396946564885496,-0.03816793893129771,-0.04580152671755725
1.0487191772460938,-0.0053887939453125,-0.5601351928710938,-0.022900763358778626,-0.06870229007633588,-0.04580152671755725
0.9648934936523438,0.08352630615234376,-0.7155120849609375,-0.19083969465648853,-0.12213740458015267,-0.05343511450381679
0.9370513916015626,0.144898681640625,-0.6667135620117188,-0.07633587786259542,-0.03816793893129771,-0.022900763358778626
0.9660910034179688,0.13711486816406251,-0.70892578125,-0.29770992366412213,-0.03816793893129771,0.0
0.8984317016601563,0.08592132568359376,-0.5894741821289062,-0.22900763358778625,0.03816793893129771,0.007633587786259542
0.9517208862304688,0.02155517578125,-0.4721182250976563,0.061068702290076333,0.03816793893129771,0.05343511450381679
0.83107177734375,0.0,-0.5834866333007813,0.13740458015267176,0.015267175572519083,-0.030534351145038167
0.8792715454101563,0.045205993652343755,-0.6697073364257813,0.17557251908396945,0.015267175572519083,0.007633587786259542
0.8451425170898438,-0.003592529296875,-0.7702981567382813,0.0916030534351145,-0.007633587786259542,-0.007633587786259542
0.8643026733398438,0.013771362304687501,-0.7595205688476563,0.07633587786259542,0.015267175572519083,-0.015267175572519083
0.7903564453125,-0.14040802001953126,-0.7179071044921875,0.06870229007633588,-0.015267175572519083,-0.022900763358778626
0.8238867187500001,-0.22004241943359376,-0.7667056274414062,0.10687022900763359,-0.015267175572519083,-0.03816793893129771
0.795146484375,-0.22632934570312502,-0.7705975341796876,0.11450381679389313,0.030534351145038167,-0.007633587786259542
0.6753955078125,-0.22123992919921875,-0.7664062500000001,-0.07633587786259542,0.015267175572519083,0.007633587786259542
0.9220825195312501,-0.32781829833984377,-0.6712042236328125,-0.09923664122137404,0.030534351145038167,0.022900763358778626
0.6268963623046875,-0.377215576171875,-0.6068380737304688,0.03816793893129771,0.022900763358778626,-0.015267175572519083
0.8137078857421876,-0.2939886474609375,-0.7062313842773438,0.06870229007633588,-0.03816793893129771,-0.015267175572519083
0.6236032104492187,-0.39428009033203126,-0.748443603515625,-0.030534351145038167,0.0,0.022900763358778626
0.7253915405273438,-0.27722351074218754,-0.7409591674804688,0.08396946564885496,0.015267175572519083,-0.007633587786259542
0.7694000244140625,-0.2736309814453125,-0.7232958984375001,-0.061068702290076333,-0.03816793893129771,-0.030534351145038167
0.6843768310546875,-0.2966830444335938,-0.7789801025390626,0.0,0.0,-0.015267175572519083
0.5960604858398438,-0.2149530029296875,-0.81670166015625,0.061068702290076333,-0.04580152671755725,-0.007633587786259542
0.1407073974609375,0.1287322998046875,-0.19669097900390625,-0.1297709923664122,-0.4427480916030534,-0.10687022900763359
-1.0367440795898437,-1.0511141967773439,1.110091552734375,-0.5419847328244275,-1.7862595419847327,-0.7099236641221374
-1.4211447143554687,-1.0151889038085937,0.8792715454101563,0.1984732824427481,-1.5725190839694656,-1.2442748091603053
0.0688568115234375,-0.8529263305664063,0.6487509155273438,0.22900763358778625,-0.7862595419847328,-0.8625954198473282
1.0065069580078125,-0.6041436767578126,0.43110351562500004,-0.20610687022900762,-0.282442748091603,-0.3053435114503817
1.6046630859375002,-0.6469546508789062,0.7176077270507812,-0.13740458015267176,0.022900763358778626,-0.22900763358778625
1.8738034057617188,-0.5442681884765626,0.7155120849609375,-0.10687022900763359,0.3969465648854962,0.2595419847328244
1.5549664306640625,-0.8277786254882813,0.91729248046875,-0.030534351145038167,0.6335877862595419,0.41221374045801523
1.3349240112304688,-1.2504995727539063,2.11959228515625,0.6641221374045801,0.7022900763358778,0.33587786259541985
0.1287322998046875,1.3789324951171875,-1.4891033935546876,-0.8244274809160305,0.8549618320610687,0.7480916030534351
0.17483642578125,-1.1271560668945313,1.9055374145507813,0.7862595419847328,0.35877862595419846,-0.08396946564885496
0.7364685058593751,0.1484912109375,2.063009948730469,-0.2595419847328244,-0.022900763358778626,0.015267175572519083
0.45295806884765627,-0.3011737060546875,1.56394775390625,0.12213740458015267,-0.3129770992366412,-0.10687022900763359
0.45146118164062504,-0.05748046875,1.811532897949219,0.48854961832061067,-0.48854961832061067,-0.015267175572519083
0.7930508422851563,-0.8936416625976563,0.8846603393554688,-0.366412213740458,-0.7175572519083969,-0.4427480916030534
1.42024658203125,-0.7059320068359375,0.918489990234375,0.007633587786259542,-0.6183206106870229,-0.4427480916030534
1.6651373291015625,-0.168848876953125,1.0451266479492187,0.03816793893129771,-0.40458015267175573,-0.549618320610687
1.7489630126953126,-0.15358062744140627,0.9568103027343751,0.015267175572519083,-0.07633587786259542,-0.022900763358778626
1.5094610595703126,-0.08292755126953126,0.822689208984375,0.07633587786259542,0.2213740458015267,0.2595419847328244
0.267044677734375,0.1047821044921875,-0.16974700927734376,-0.08396946564885496,1.0381679389312977,0.7099236641221374
0.30865814208984377,-0.0628692626953125,0.00718505859375,-0.3511450381679389,1.6870229007633588,1.114503816793893
0.5948629760742188,-0.7753875732421875,1.5881973266601563,0.47328244274809156,1.7786259541984732,1.1068702290076335
0.3864962768554688,0.037721557617187505,0.5263055419921875,-0.03816793893129771,1.564885496183206,0.6259541984732824
0.8559201049804688,-0.18591339111328126,0.49906219482421876,0.11450381679389313,0.366412213740458,0.1297709923664122
1.5055691528320314,0.132923583984375,0.4014651489257813,-0.32061068702290074,-0.022900763358778626,-0.030534351145038167
1.5432907104492188,0.18920654296875,-0.19699035644531251,0.16030534351145037,-0.04580152671755725,-0.08396946564885496
1.4256353759765625,0.40954833984375,-0.4071533203125,0.0,-0.022900763358778626,-0.015267175572519083
1.4067745971679688,0.18082397460937502,-0.39517822265625,-0.04580152671755725,-0.007633587786259542,-0.007633587786259542
1.3567785644531252,0.20207977294921875,-0.329315185546875,-0.08396946564885496,0.007633587786259542,-0.015267175572519083
1.3546829223632812,0.10837463378906251,-0.4646337890625,0.17557251908396945,0.0,0.030534351145038167
1.3451028442382813,0.10687774658203125,-0.6664141845703125,0.04580152671755725,-0.03816793893129771,-0.030534351145038167
1.36037109375,0.14609619140625002,-0.5894741821289062,-0.04580152671755725,0.015267175572519083,-0.030534351145038167
1.294508056640625,0.11555969238281251,-0.5346881103515625,-0.10687022900763359,-0.015267175572519083,-0.022900763358778626
1.2843292236328125,0.09729766845703125,-0.57240966796875,-0.12213740458015267,-0.022900763358778626,-0.04580152671755725
1.2735516357421877,0.14190490722656252,-0.55564453125,-0.1450381679389313,-0.05343511450381679,-0.030534351145038167
1.2049942016601562,0.20597167968750002,-0.631087646484375,-0.07633587786259542,-0.04580152671755725,-0.04580152671755725
1.2451107788085938,0.14459930419921876,-0.6676116943359376,-0.061068702290076333,-0.06870229007633588,-0.04580152671755725
1.1214678955078126,0.08801696777343751,-0.6274951171875001,-0.07633587786259542,-0.061068702290076333,-0.07633587786259542
1.0804531860351563,0.032332763671875,-0.55803955078125,-0.05343511450381679,-0.007633587786259542,0.03816793893129771
1.1789483642578125,0.07155120849609375,-0.5948629760742188,-0.03816793893129771,-0.03816793893129771,-0.030534351145038167
1.0343490600585938,0.10568023681640626,-0.6041436767578126,0.16030534351145037,0.0,-0.007633587786259542
1.0106982421875002,-0.02305206298828125,-0.6667135620117188,0.1297709923664122,0.007633587786259542,0.03816793893129771
1.0301577758789062,-0.05987548828125,-0.7176077270507812,0.11450381679389313,0.007633587786259542,0.04580152671755725
1.0268646240234376,-0.08412506103515625,-0.7056326293945313,0.07633587786259542,0.015267175572519083,-0.007633587786259542
0.98914306640625,-0.1478924560546875,-0.6966513061523438,0.08396946564885496,-0.022900763358778626,-0.030534351145038167
0.9460327148437501,-0.19369720458984377,-0.7167095947265625,0.03816793893129771,-0.030534351145038167,-0.022900763358778626
1.0954220581054688,-0.16316070556640624,-0.7682025146484376,-0.03816793893129771,0.03816793893129771,-0.015267175572519083
0.91729248046875,-0.21285736083984377,-0.7427554321289063,-0.1297709923664122,-0.007633587786259542,-0.007633587786259542
0.9795629882812501,-0.2966830444335938,-0.6125262451171876,0.04580152671755725,0.007633587786259542,0.007633587786259542
0.7753875732421875,-0.3119512939453125,-0.6996450805664063,0.21374045801526717,-0.03816793893129771,0.007633587786259542
1.1130853271484376,-0.16914825439453127,-0.6954537963867188,0.16030534351145037,-0.05343511450381679,-0.030534351145038167
0.861009521484375,-0.46613067626953125,-0.6765930175781251,0.030534351145038167,0.007633587786259542,0.030534351145038167
0.8966354370117188,-0.40894958496093753,-0.6221063232421875,0.04580152671755725,-0.022900763358778626,-0.007633587786259542
0.8753796386718751,-0.43349853515625003,-0.6370751953125,0.10687022900763359,0.0,0.0
0.7852670288085938,-0.4727169799804688,-0.5727090454101563,0.061068702290076333,-0.030534351145038167,-0.015267175572519083
-0.9618997192382813,0.5224136352539063,1.2202624511718752,-0.0916030534351145,-1.129770992366412,0.24427480916030533
-1.9848724365234376,-0.0017962646484375,0.23321502685546877,-1.0229007633587786,-2.198473282442748,-0.1984732824427481
-1.2301419067382813,-1.1256591796875,-0.1395098876953125,-0.7633587786259541,-1.9541984732824427,-1.0610687022900762
-0.7098239135742188,-0.8319699096679688,0.35296600341796874,-0.007633587786259542,-1.4961832061068703,-1.0687022900763359
0.9984237670898438,-0.9352551269531251,0.7146139526367188,-0.10687022900763359,-0.3969465648854962,-0.7557251908396946
1.5585589599609375,-0.5769003295898438,0.8795709228515626,0.11450381679389313,-0.022900763358778626,-0.4351145038167939
2.1189935302734377,-0.6385720825195312,0.8684939575195313,-0.0916030534351145,0.4427480916030534,0.17557251908396945
2.221380615234375,-1.0008187866210938,1.3780343627929688,-0.3511450381679389,0.5725190839694656,0.47328244274809156
1.8357824707031252,-1.5573614501953126,2.4474105834960938,0.7938931297709924,0.3129770992366412,0.25190839694656486
0.0532891845703125,-0.9915380859375,0.23980133056640626,0.5190839694656488,0.42748091603053434,-0.20610687022900762
0.8756790161132812,-0.15597564697265626,1.9752923583984376,0.5877862595419847,0.45038167938931295,0.183206106870229
0.7589218139648438,-0.3239263916015625,1.43701171875,-0.46564885496183206,-0.11450381679389313,-0.13740458015267176
0.5706134033203125,0.46493316650390626,0.19399658203125,-0.9541984732824427,-0.22900763358778625,-0.16030534351145037
1.0535092163085937,-0.8286767578125,1.47772705078125,0.25190839694656486,-0.09923664122137404,-0.3053435114503817
1.5319143676757814,-0.6933581542968751,1.4600637817382813,0.3129770992366412,0.03816793893129771,-0.25190839694656486
1.3947994995117188,-0.14699432373046875,1.312470703125,0.007633587786259542,-0.11450381679389313,-0.061068702290076333
0.5834866333007813,-0.07334747314453126,-0.3553610229492188,-0.33587786259541985,0.83206106870229,0.48854961832061067
0.6056405639648438,0.08053253173828126,0.4520599365234375,-0.2595419847328244,1.5114503816793892,0.8015267175572519
0.15657440185546875,0.6673123168945313,-0.928070068359375,-0.29770992366412213,1.5572519083969465,0.6946564885496183
-0.006885681152343751,0.7682025146484376,0.42571472167968755,0.38167938931297707,0.8015267175572519,0.015267175572519083
1.6447796630859375,-0.2613565063476563,0.2125579833984375,-0.4427480916030534,0.05343511450381679,-0.05343511450381679
1.4828164672851563,0.28889923095703124,-0.17603393554687502,-0.015267175572519083,-0.0916030534351145,-0.0916030534351145
1.48730712890625,0.45265869140625004,-0.6074368286132813,0.030534351145038167,-0.015267175572519083,-0.015267175572519083
1.4858102416992187,0.4493655395507813,-0.6050418090820313,-0.183206106870229,-0.06870229007633588,-0.03816793893129771
1.4630575561523438,0.3445834350585938,-0.55324951171875,-0.0916030534351145,-0.061068702290076333,-0.04580152671755725
1.3822256469726564,0.4831951904296875,-0.652642822265625,-0.0916030534351145,-0.022900763358778626,-0.015267175572519083
1.4013858032226563,0.21794677734375,-0.520916748046875,-0.06870229007633588,0.015267175572519083,0.06870229007633588
1.320853271484375,0.1993853759765625,-0.6092330932617188,0.29770992366412213,0.007633587786259542,0.061068702290076333
1.4178515625,0.3787124633789063,-0.7607180786132813,-0.03816793893129771,-0.061068702290076333,0.015267175572519083
1.2711566162109376,0.3155438232421875,-0.7026388549804687,-0.015267175572519083,-0.03816793893129771,0.007633587786259542
1.3184582519531252,0.2505789184570313,-0.7307803344726563,-0.05343511450381679,-0.04580152671755725,-0.05343511450381679
1.2118798828125001,0.30446685791015626,-0.7125183105468751,-0.061068702290076333,-0.03816793893129771,-0.015267175572519083
1.3100756835937502,0.20597167968750002,-0.70892578125,-0.015267175572519083,-0.030534351145038167,-0.022900763358778626
1.25259521484375,0.2532733154296875,-0.6984475708007812,0.030534351145038167,-0.030534351145038167,-0.061068702290076333
1.1972103881835938,0.22363494873046877,-0.722098388671875,-0.183206106870229,-0.015267175572519083,-0.061068702290076333
1.1277548217773439,0.1574725341796875,-0.6412664794921875,-0.10687022900763359,0.007633587786259542,0.007633587786259542
1.1517050170898437,0.124541015625,-0.6715036010742188,-0.015267175572519083,-0.022900763358778626,-0.030534351145038167
1.1253598022460938,0.13022918701171876,-0.7610174560546875,0.12213740458015267,0.03816793893129771,0.06870229007633588
1.1367361450195312,0.001197509765625,-0.7580236816406251,0.08396946564885496,0.007633587786259542,0.022900763358778626
1.1654763793945313,0.12903167724609377,-0.7921527099609376,0.08396946564885496,-0.007633587786259542,-0.030534351145038167
1.1187734985351563,0.12244537353515626,-0.8208929443359375,0.0,-0.03816793893129771,-0.030534351145038167
1.0151889038085937,-0.09250762939453125,-0.8346643066406251,0.07633587786259542,-0.03816793893129771,-0.022900763358778626
1.035845947265625,-0.07394622802734375,-0.8101153564453125,0.08396946564885496,-0.03816793893129771,0.0
1.1271560668945313,-0.13202545166015625,-0.7918533325195313,0.061068702290076333,-0.015267175572519083,0.007633587786259542
1.1053015136718751,-0.22123992919921875,-0.7777825927734375,0.0916030534351145,0.04580152671755725,-0.022900763358778626
