accel.x,accel.y,accel.z,gyro.x,gyro.y,gyro.z
0.238304443359375,-0.2748284912109375,-0.36673736572265625,-0.030534351145038167,-0.007633587786259542,-0.015267175572519083
0.17812957763671877,-0.1389111328125,-0.324525146484375,0.0,-0.007633587786259542,0.0
0.1874102783203125,-0.1431024169921875,-0.3658392333984375,0.007633587786259542,-0.007633587786259542,0.007633587786259542
0.168848876953125,-0.14579681396484376,-0.3658392333984375,0.007633587786259542,0.0,0.0
0.15178436279296875,-0.135318603515625,-0.3308120727539063,0.0,0.0,0.0
0.13442047119140627,-0.143701171875,-0.34817596435546877,0.007633587786259542,-0.007633587786259542,0.0
0.11945159912109375,-0.13681549072265625,-0.3541635131835938,0.007633587786259542,-0.007633587786259542,0.0
0.11645782470703125,-0.12274475097656251,-0.35176849365234375,0.0,-0.007633587786259542,-0.007633587786259542
0.10538085937500001,-0.11226654052734375,-0.355660400390625,-0.015267175572519083,-0.007633587786259542,0.0
0.089813232421875,-0.10687774658203125,-0.34937347412109376,-0.007633587786259542,0.0,0.007633587786259542
0.09041198730468751,-0.09849517822265626,-0.34667907714843754,0.007633587786259542,0.0,0.0
0.07065307617187501,-0.08771759033203125,-0.3448828125,0.0,-0.007633587786259542,0.0
0.0652642822265625,-0.08472381591796875,-0.35176849365234375,-0.007633587786259542,-0.007633587786259542,-0.007633587786259542
0.06945556640625,-0.08382568359375,-0.354462890625,0.0,-0.007633587786259542,-0.007633587786259542
0.056282958984375006,-0.06945556640625,-0.35176849365234375,0.0,-0.007633587786259542,-0.007633587786259542
0.056582336425781254,-0.06376739501953126,-0.34727783203125,-0.015267175572519083,0.0,-0.007633587786259542
0.0532891845703125,-0.06825805664062501,-0.34817596435546877,0.007633587786259542,0.0,0.0
0.049097900390625004,-0.06735992431640625,-0.33171020507812504,0.007633587786259542,-0.007633587786259542,-0.007633587786259542
0.035326538085937505,-0.052989807128906254,-0.34667907714843754,0.0,-0.007633587786259542,0.0
0.037122802734375,-0.06945556640625,-0.34907409667968753,0.0,-0.007633587786259542,0.0
0.03323089599609375,-0.0622705078125,-0.3526666259765625,-0.007633587786259542,-0.007633587786259542,0.0
0.031734008789062504,-0.061372375488281256,-0.3541635131835938,-0.015267175572519083,-0.007633587786259542,-0.007633587786259542
0.03263214111328125,-0.058677978515625,-0.35835479736328124,-0.015267175572519083,0.0,-0.007633587786259542
0.0305364990234375,-0.055384826660156254,-0.34937347412109376,0.0,0.0,-0.007633587786259542
0.020357666015625,-0.036524047851562505,-0.350870361328125,-0.007633587786259542,-0.007633587786259542,0.0
0.029937744140625,-0.04580474853515625,-0.35715728759765625,-0.007633587786259542,0.0,-0.007633587786259542
0.02664459228515625,-0.0496966552734375,-0.3592529296875,0.0,0.0,0.0
0.02424957275390625,-0.02245330810546875,-0.3634442138671875,-0.007633587786259542,0.0,-0.007633587786259542
0.02963836669921875,-0.034727783203125,-0.36134857177734375,-0.007633587786259542,0.0,-0.007633587786259542
0.020357666015625,-0.014070739746093752,-0.35715728759765625,-0.007633587786259542,-0.007633587786259542,0.0
0.030237121582031252,-0.01676513671875,-0.35775604248046877,0.0,-0.007633587786259542,0.0
0.023950195312500002,-0.013771362304687501,-0.3619473266601563,-0.015267175572519083,-0.007633587786259542,-0.007633587786259542
0.025147705078125002,0.006286926269531251,-0.35895355224609377,-0.022900763358778626,0.0,0.0
0.027542724609375003,0.00029937744140625,-0.36434234619140626,-0.007633587786259542,0.0,0.0
0.013172607421875001,0.011376342773437501,-0.3849993896484375,-0.007633587786259542,0.0,0.0
0.0209564208984375,-0.0059875488281250005,-0.35715728759765625,0.015267175572519083,0.0,-0.007633587786259542
-0.17393829345703127,0.192799072265625,-0.1646575927734375,0.13740458015267176,-0.007633587786259542,0.061068702290076333
-1.0038125610351563,1.4699432373046877,1.2316387939453126,0.183206106870229,-0.34351145038167935,0.29770992366412213
-4.581372985839844,3.1087353515625002,1.0421328735351563,-0.08396946564885496,-1.129770992366412,2.183206106870229
-5.008285217285157,2.6036856079101565,-0.504151611328125,0.022900763358778626,-0.9312977099236641,3.0763358778625953
-2.8108547973632816,1.153201904296875,-0.8870553588867188,-0.5190839694656488,-0.7709923664122137,3.1068702290076335
0.4727169799804688,0.1293310546875,-0.19699035644531251,-0.16793893129770993,-0.4351145038167939,2.6564885496183206
2.5381219482421877,-0.8235873413085938,0.16016693115234376,-0.23664122137404578,-0.33587786259541985,1.7022900763358777
3.4784664916992187,-2.770738220214844,0.4481680297851563,-0.21374045801526717,-0.3282442748091603,0.6870229007633587
3.510499877929688,-3.067421264648438,0.5565426635742188,0.09923664122137404,-0.1984732824427481,-0.10687022900763359
2.381547546386719,-3.124302978515625,-0.09520202636718751,0.23664122137404578,-0.12213740458015267,-1.3893129770992365
-0.43260040283203127,-3.318000183105469,-0.5287005615234375,0.29770992366412213,0.3893129770992366,-3.2213740458015265
-4.919968872070313,-1.6777111816406252,-1.3537847900390625,0.6106870229007634,0.8931297709923663,-3.8931297709923665
0.09280700683593751,1.8459613037109377,1.0005194091796876,-0.22900763358778625,-0.08396946564885496,-0.015267175572519083
1.2948074340820312,2.6447003173828127,0.104183349609375,-0.022900763358778626,-0.061068702290076333,0.34351145038167935
1.2388238525390625,2.1878503417968753,-0.15477813720703126,0.0,0.2900763358778626,0.8702290076335878
0.1323248291015625,2.4878265380859377,-0.02365081787109375,0.1297709923664122,0.2213740458015267,1.6564885496183206
-1.5992742919921876,2.2076092529296876,-0.39128631591796875,-0.24427480916030533,0.7175572519083969,2.49618320610687
-1.542093200683594,-0.3065625,0.67779052734375,-0.4961832061068702,0.19083969465648853,2.5114503816793894
0.0814306640625,-2.3749612426757816,0.37631744384765625,-0.648854961832061,-0.2595419847328244,1.6259541984732824
2.2944287109375003,-2.9096493530273437,0.4293072509765625,-0.3969465648854962,-0.0916030534351145,0.15267175572519084
2.4519012451171878,-2.1761746215820312,0.547261962890625,0.34351145038167935,0.10687022900763359,-0.8778625954198473
1.1005114746093752,-0.7080276489257813,-0.07993377685546875,0.183206106870229,0.0916030534351145,-1.549618320610687
-1.2738510131835938,-2.6171575927734376,-0.30446685791015626,0.5954198473282443,0.8015267175572519,-3.49618320610687
-2.6264382934570314,0.8628057861328126,0.8646020507812501,0.7480916030534351,0.09923664122137404,-2.717557251908397
-2.2073098754882814,3.5982174682617187,0.8879534912109376,0.06870229007633588,-0.16030534351145037,-1.2671755725190839
0.2221380615234375,1.563648376464844,1.4759307861328126,0.45038167938931295,0.5954198473282443,-1.9236641221374045
0.4724176025390625,2.552791442871094,1.1678713989257814,1.2900763358778626,0.8396946564885496,-0.6183206106870229
1.4735357666015625,0.9765692138671875,0.5278024291992188,-0.4198473282442748,-0.3969465648854962,0.6183206106870229
2.0070263671875,-0.8014334106445313,0.3469784545898438,-0.10687022900763359,0.022900763358778626,0.030534351145038167
1.81302978515625,-0.25896148681640624,0.49756530761718754,-0.2213740458015267,0.022900763358778626,0.007633587786259542
1.746867370605469,-0.28261230468750004,0.4496649169921875,0.030534351145038167,-0.030534351145038167,0.007633587786259542
1.619033203125,-0.008382568359375,0.4068539428710938,0.007633587786259542,-0.007633587786259542,0.015267175572519083
1.53520751953125,-0.06436614990234375,0.3909869384765625,0.12213740458015267,-0.007633587786259542,0.030534351145038167
1.4432986450195313,0.03263214111328125,0.18591339111328126,-0.05343511450381679,-0.05343511450381679,0.015267175572519083
1.452579345703125,-0.16974700927734376,0.18052459716796876,-0.061068702290076333,0.04580152671755725,-0.06870229007633588
1.1777508544921875,0.18291961669921875,0.250279541015625,0.007633587786259542,-0.007633587786259542,-0.17557251908396945
1.2463082885742187,0.17932708740234377,0.001197509765625,-0.32061068702290074,-0.05343511450381679,-0.022900763358778626
1.308878173828125,0.0496966552734375,0.061372375488281256,-0.19083969465648853,0.06870229007633588,0.0
1.114582214355469,0.02305206298828125,-0.07035369873046875,-0.06870229007633588,-0.05343511450381679,0.08396946564885496
1.01788330078125,-0.02664459228515625,-0.0999920654296875,-0.05343511450381679,0.06870229007633588,0.17557251908396945
0.9633966064453126,-0.03113525390625,0.17573455810546876,0.0,-0.10687022900763359,0.08396946564885496
0.9071136474609376,-0.06735992431640625,-0.03263214111328125,0.3893129770992366,-0.061068702290076333,0.07633587786259542
0.928070068359375,-0.32482452392578126,-0.14879058837890627,0.45038167938931295,-0.030534351145038167,-0.007633587786259542
0.6385720825195312,-0.28949798583984376,-0.19848724365234377,0.6717557251908397,0.12213740458015267,0.0
0.9035211181640626,-0.5861810302734375,-0.25626708984375,0.21374045801526717,0.061068702290076333,-0.030534351145038167
0.6523434448242188,-0.3879931640625,-0.23201751708984375,-0.16030534351145037,-0.030534351145038167,0.03816793893129771
0.7277865600585938,-0.5394781494140626,-0.21136047363281252,-0.3893129770992366,-0.007633587786259542,0.007633587786259542
0.7238946533203126,-0.4122427368164063,-0.24219635009765625,-0.33587786259541985,-0.007633587786259542,-0.07633587786259542
0.7092251586914062,-0.19699035644531251,-0.31404693603515627,-0.2595419847328244,0.061068702290076333,-0.06870229007633588
0.6364764404296875,0.014070739746093752,-0.32871643066406253,-0.22900763358778625,0.030534351145038167,0.0
0.6658154296875001,0.018860778808593753,-0.3718267822265625,-0.2213740458015267,0.007633587786259542,0.03816793893129771
0.6553372192382813,0.028141479492187503,-0.3945794677734375,-0.11450381679389313,0.015267175572519083,0.04580152671755725
0.5260061645507813,0.087418212890625,-0.22962249755859376,-0.08396946564885496,-0.08396946564885496,0.015267175572519083
0.4655319213867188,0.046702880859375004,-0.19190093994140625,0.2213740458015267,-0.04580152671755725,0.0
0.37392242431640627,0.0437091064453125,-0.15088623046875002,0.4809160305343511,-0.05343511450381679,-0.022900763358778626
0.3673361206054688,-0.08083190917968751,-0.34907409667968753,0.21374045801526717,0.007633587786259542,-0.007633587786259542
0.456251220703125,-0.14340179443359377,-0.3338058471679688,0.04580152671755725,-0.030534351145038167,0.030534351145038167
0.38200561523437504,-0.46104125976562504,-0.26075775146484376,0.12213740458015267,0.03816793893129771,-0.030534351145038167
0.355660400390625,-0.1586700439453125,-0.36703674316406254,0.07633587786259542,0.015267175572519083,-0.03816793893129771
0.30147308349609375,-0.3646417236328125,-0.2700384521484375,-0.1450381679389313,-0.015267175572519083,0.0
0.31524444580078126,-0.1359173583984375,-0.3242257690429688,-0.16793893129770993,-0.015267175572519083,-0.015267175572519083
0.2544708251953125,-0.389190673828125,-0.2951861572265625,0.16030534351145037,-0.04580152671755725,-0.10687022900763359
-0.0712518310546875,0.113763427734375,0.0461041259765625,0.13740458015267176,-0.1450381679389313,-0.0916030534351145
-2.676134948730469,2.7357110595703125,2.0600161743164063,0.732824427480916,-0.5419847328244275,1.114503816793893
-5.260061645507813,2.7563681030273437,0.8211923217773438,0.19083969465648853,-0.4961832061068702,3.091603053435114
-5.615422668457032,1.4630575561523438,-1.3804293823242189,-0.4427480916030534,-0.2595419847328244,3.427480916030534
-3.4287698364257815,0.26734405517578125,-1.4037808227539064,-1.0229007633587786,-0.5725190839694656,3.595419847328244
1.7199234008789064,-0.9379495239257813,-0.14040802001953126,0.007633587786259542,-0.7786259541984732,1.5877862595419847
2.992277526855469,-2.6429040527343752,-0.42302032470703127,-0.21374045801526717,-0.42748091603053434,0.4351145038167939
1.7765057373046875,-2.9189300537109375,-1.2564871215820312,0.16030534351145037,-0.5267175572519084,-1.6793893129770991
-1.4983840942382813,-3.533551940917969,-2.1953347778320316,0.40458015267175573,1.2671755725190839,-3.83206106870229
-5.140310668945313,0.40954833984375,-0.9056167602539062,1.5114503816793892,0.35877862595419846,-2.687022900763359
-1.6822018432617187,4.009262695312501,1.5995736694335938,-0.21374045801526717,-0.6564885496183206,-1.3511450381679388
2.060614929199219,0.8292755126953125,0.1778302001953125,0.030534351145038167,0.3969465648854962,-0.6183206106870229
1.3397140502929688,2.58422607421875,0.51971923828125,0.5038167938931297,-0.2748091603053435,-0.4351145038167939
1.19990478515625,2.7434948730468753,0.39547760009765626,0.10687022900763359,0.17557251908396945,0.29770992366412213
0.5098397827148438,3.10155029296875,0.11705657958984375,-0.04580152671755725,0.07633587786259542,1.2366412213740459
-1.5007791137695314,2.4408242797851565,-0.17004638671875,0.12213740458015267,0.46564885496183206,2.2213740458015265
-2.291734313964844,0.6721023559570313,0.2796185302734375,-1.3740458015267174,0.1984732824427481,2.8931297709923665
-1.0271640014648438,-1.8420693969726563,0.14040802001953126,-0.5419847328244275,-0.8167938931297709,2.916030534351145
1.5106585693359376,-2.7557693481445313,-0.17004638671875,-0.35877862595419846,-0.3893129770992366,0.8854961832061068
2.2815554809570315,-2.24892333984375,0.21076171875000002,0.05343511450381679,-0.16030534351145037,0.0916030534351145
1.3953982543945314,-1.29570556640625,-0.00987945556640625,0.2748091603053435,0.46564885496183206,-1.3511450381679388
-0.398770751953125,-0.48020141601562505,-0.5469625854492188,0.7175572519083969,0.46564885496183206,-2.198473282442748
-1.0268646240234376,-0.6056405639648438,-0.5900729370117188,0.12213740458015267,0.9541984732824427,-2.595419847328244
-1.6950750732421875,1.1561956787109375,0.4409829711914063,-0.05343511450381679,1.7251908396946565,-2.687022900763359
-1.8839822387695313,3.6347415161132814,2.5830285644531252,-0.366412213740458,0.4961832061068702,-2.1908396946564883
-0.6975494384765626,3.6218682861328126,2.2998175048828124,1.3282442748091603,0.9923664122137404,-3.114503816793893
0.5801934814453126,4.055666198730469,0.5080435180664062,0.2900763358778626,0.2595419847328244,-0.04580152671755725
1.744771728515625,-0.20686981201171875,0.6295907592773438,0.12213740458015267,-0.061068702290076333,0.5572519083969465
2.0351678466796876,-0.40894958496093753,0.33320709228515627,0.061068702290076333,0.07633587786259542,-0.11450381679389313
1.7390835571289063,-0.39577697753906255,0.6613247680664063,-0.2595419847328244,-0.13740458015267176,0.007633587786259542
1.6447796630859375,-0.19968475341796876,0.6167175292968751,0.07633587786259542,0.022900763358778626,0.0
1.5917898559570314,-0.1886077880859375,0.39308258056640627,0.3282442748091603,0.0,-0.03816793893129771
1.5295193481445313,-0.05957611083984375,0.14100677490234376,-0.022900763358778626,0.0,0.04580152671755725
1.4681469726562502,-0.20447479248046876,0.2245330810546875,-0.061068702290076333,-0.030534351145038167,-0.022900763358778626
1.2966036987304688,-0.0688568115234375,0.19249969482421875,-0.022900763358778626,0.007633587786259542,0.03816793893129771
1.3157638549804689,-0.25896148681640624,0.2281256103515625,-0.0916030534351145,0.04580152671755725,-0.015267175572519083
1.1085946655273438,0.22692810058593751,0.1191522216796875,-0.183206106870229,-0.030534351145038167,-0.09923664122137404
1.0843450927734375,0.16645385742187502,0.04939727783203125,-0.20610687022900762,0.007633587786259542,0.07633587786259542
1.0843450927734375,0.16645385742187502,0.04939727783203125,-0.20610687022900762,0.007633587786259542,0.07633587786259542
1.0385403442382812,0.09250762939453125,-0.101788330078125,0.10687022900763359,-0.015267175572519083,0.05343511450381679
0.9633966064453126,-0.01466949462890625,-0.12903167724609377,0.0916030534351145,0.030534351145038167,0.05343511450381679
0.9032217407226563,0.0712518310546875,0.0059875488281250005,0.16793893129770993,-0.022900763358778626,0.04580152671755725
0.9107061767578125,0.1395098876953125,-0.18411712646484377,-0.015267175572519083,-0.05343511450381679,0.11450381679389313
0.8436456298828126,-0.2697390747070313,-0.15238311767578125,0.1984732824427481,-0.11450381679389313,0.04580152671755725
0.8436456298828126,-0.2697390747070313,-0.15238311767578125,0.1984732824427481,-0.11450381679389313,0.04580152671755725
0.8436456298828126,-0.2697390747070313,-0.15238311767578125,0.1984732824427481,-0.11450381679389313,0.04580152671755725
0.8436456298828126,-0.2697390747070313,-0.15238311767578125,0.1984732824427481,-0.11450381679389313,0.04580152671755725
0.8436456298828126,-0.2697390747070313,-0.15238311767578125,0.1984732824427481,-0.11450381679389313,0.04580152671755725
0.8436456298828126,-0.2697390747070313,-0.15238311767578125,0.1984732824427481,-0.11450381679389313,0.04580152671755725
0.8436456298828126,-0.2697390747070313,-0.15238311767578125,0.1984732824427481,-0.11450381679389313,0.04580152671755725
0.27572662353515626,0.16316070556640624,-0.14998809814453126,0.17557251908396945,0.061068702290076333,-0.06870229007633588
0.17992584228515626,0.25806335449218754,-0.3200344848632813,-0.21374045801526717,-0.015267175572519083,0.022900763358778626
0.2077679443359375,0.1526824951171875,-0.20507354736328126,-0.35877862595419846,-0.061068702290076333,0.03816793893129771
0.22483245849609376,0.07214996337890625,0.03382965087890625,0.061068702290076333,0.022900763358778626,-0.007633587786259542
0.18291961669921875,0.21944366455078126,-0.20327728271484377,0.1297709923664122,0.015267175572519083,-0.022900763358778626
0.18291961669921875,0.21944366455078126,-0.20327728271484377,0.1297709923664122,0.015267175572519083,-0.022900763358778626
0.18291961669921875,0.21944366455078126,-0.20327728271484377,0.1297709923664122,0.015267175572519083,-0.022900763358778626
0.18291961669921875,0.21944366455078126,-0.20327728271484377,0.1297709923664122,0.015267175572519083,-0.022900763358778626
-2.199526062011719,2.6746380615234377,0.35296600341796874,-0.5572519083969465,-0.29770992366412213,0.7709923664122137
-2.199526062011719,2.6746380615234377,0.35296600341796874,-0.5572519083969465,-0.29770992366412213,0.7709923664122137
-2.199526062011719,2.6746380615234377,0.35296600341796874,-0.5572519083969465,-0.29770992366412213,0.7709923664122137
-2.199526062011719,2.6746380615234377,0.35296600341796874,-0.5572519083969465,-0.29770992366412213,0.7709923664122137
-2.199526062011719,2.6746380615234377,0.35296600341796874,-0.5572519083969465,-0.29770992366412213,0.7709923664122137
-2.199526062011719,2.6746380615234377,0.35296600341796874,-0.5572519083969465,-0.29770992366412213,0.7709923664122137
-2.199526062011719,2.6746380615234377,0.35296600341796874,-0.5572519083969465,-0.29770992366412213,0.7709923664122137
-2.199526062011719,2.6746380615234377,0.35296600341796874,-0.5572519083969465,-0.29770992366412213,0.7709923664122137
-2.199526062011719,2.6746380615234377,0.35296600341796874,-0.5572519083969465,-0.29770992366412213,0.7709923664122137
-2.199526062011719,2.6746380615234377,0.35296600341796874,-0.5572519083969465,-0.29770992366412213,0.7709923664122137
-5.094805297851563,-0.7837701416015626,-1.8606307983398438,0.8854961832061068,1.3358778625954197,-3.3053435114503817
-1.1478131103515625,3.228186950683594,-0.9711804199218751,0.12213740458015267,-0.38167938931297707,0.648854961832061
0.9169931030273438,0.3155438232421875,1.157991943359375,0.6030534351145038,0.366412213740458,-0.5954198473282443
0.7963439941406251,2.588716735839844,0.29309051513671874,-0.38167938931297707,0.04580152671755725,0.015267175572519083
-0.20926483154296877,3.1249017333984375,0.8870553588867188,0.10687022900763359,-0.0916030534351145,1.099236641221374
-1.8019528198242187,2.43094482421875,-0.0532891845703125,-0.22900763358778625,-0.10687022900763359,2.2519083969465647
-2.2635928344726564,0.9050180053710938,0.4206253051757813,-0.6106870229007634,-0.16030534351145037,2.847328244274809
-2.089654541015625,-0.5736071777343751,0.43798919677734377,-0.3969465648854962,-1.0076335877862594,3.1755725190839694
0.9098080444335938,-2.6030868530273437,-0.25806335449218754,-0.0916030534351145,-0.3969465648854962,1.366412213740458
2.800675964355469,-2.678529968261719,-0.36434234619140626,-0.1450381679389313,-0.09923664122137404,-0.183206106870229
1.9737954711914063,-0.07753875732421875,0.4589456176757813,-0.030534351145038167,0.282442748091603,-0.6412213740458015
0.8337661743164063,-0.7753875732421875,-0.15956817626953126,0.6564885496183206,0.46564885496183206,-1.5725190839694656
-0.1239422607421875,-0.8795709228515626,-0.6906637573242188,0.2595419847328244,1.0,-2.465648854961832
-0.7083270263671876,1.4582675170898438,0.8448431396484375,-0.7099236641221374,1.8244274809160304,-2.2442748091603053
0.9825567626953126,1.5977774047851563,2.6312283325195316,0.061068702290076333,2.1374045801526718,-2.5267175572519083
-0.34218841552734375,2.68481689453125,3.3006362915039062,0.26717557251908397,1.450381679389313,-1.9694656488549618
-0.779578857421875,2.605481872558594,2.9880862426757813,1.2900763358778626,1.8473282442748091,-1.213740458015267
1.310973815917969,1.9684066772460938,1.7618362426757814,1.0381679389312977,0.40458015267175573,0.8167938931297709
1.799857177734375,-0.3715274047851563,1.3486953735351563,-0.07633587786259542,-0.45038167938931295,0.35877862595419846
2.05253173828125,-0.1634600830078125,0.45116180419921875,-0.03816793893129771,-0.007633587786259542,-0.007633587786259542
1.8983523559570314,0.01945953369140625,0.5242098999023438,-0.1297709923664122,0.07633587786259542,0.06870229007633588
1.81781982421875,-0.03981719970703125,0.528101806640625,-0.183206106870229,-0.05343511450381679,0.030534351145038167
1.7534536743164064,-0.02664459228515625,0.5152285766601563,0.04580152671755725,0.007633587786259542,0.0
1.6504678344726564,0.19130218505859375,0.41763153076171877,-0.015267175572519083,-0.015267175572519083,-0.022900763358778626
1.6052618408203125,0.202379150390625,0.30835876464843753,-0.022900763358778626,0.007633587786259542,-0.015267175572519083
1.4807208251953126,0.22153930664062502,0.27452911376953126,-0.022900763358778626,0.0,-0.015267175572519083
1.3289364624023439,0.23171813964843752,0.15597564697265626,-0.05343511450381679,0.022900763358778626,-0.05343511450381679
1.1463162231445314,0.5155279541015625,0.3113525390625,-0.3053435114503817,-0.10687022900763359,-0.06870229007633588
1.1136840820312501,0.11825408935546876,0.0544866943359375,-0.25190839694656486,-0.1297709923664122,0.04580152671755725
1.184337158203125,0.07304809570312501,0.07334747314453126,0.3282442748091603,0.16793893129770993,-0.16793893129770993
0.9382489013671875,0.4305047607421875,0.03382965087890625,0.08396946564885496,-0.03816793893129771,0.16793893129770993
1.0077044677734375,0.16046630859375,-0.09250762939453125,0.10687022900763359,0.030534351145038167,0.030534351145038167
0.8903485107421876,0.18531463623046876,0.015867004394531252,-0.03816793893129771,-0.007633587786259542,0.07633587786259542
0.8655001831054688,0.183218994140625,-0.00508941650390625,-0.05343511450381679,-0.061068702290076333,0.030534351145038167
0.8247848510742188,0.02544708251953125,-0.1754351806640625,0.08396946564885496,-0.0916030534351145,0.09923664122137404
0.73048095703125,-0.09729766845703125,-0.48948211669921876,0.3282442748091603,0.04580152671755725,0.08396946564885496
0.7134164428710937,-0.35775604248046877,0.14130615234375002,0.7786259541984732,0.16030534351145037,0.0
0.7750881958007813,-0.09819580078125001,-0.20836669921875,-0.007633587786259542,-0.05343511450381679,-0.007633587786259542
0.6295907592773438,-0.08382568359375,-0.2436932373046875,-0.09923664122137404,-0.03816793893129771,-0.03816793893129771
0.6577322387695312,-0.23650817871093752,-0.23740631103515628,-0.24427480916030533,-0.022900763358778626,0.015267175572519083
0.5221142578125,-0.14938934326171877,-0.13980926513671876,-0.282442748091603,-0.05343511450381679,-0.05343511450381679
0.5346881103515625,-0.023351440429687502,-0.23740631103515628,-0.21374045801526717,0.0,-0.03816793893129771
0.4763095092773438,0.17453704833984376,-0.1886077880859375,-0.21374045801526717,-0.015267175572519083,-0.08396946564885496
0.46762756347656254,0.35176849365234375,-0.1676513671875,-0.282442748091603,-0.022900763358778626,-0.03816793893129771
0.3113525390625,0.3960763549804688,-0.08532257080078126,-0.16030534351145037,-0.03816793893129771,0.030534351145038167
0.4041595458984375,0.434696044921875,-0.1119671630859375,0.03816793893129771,0.022900763358778626,0.015267175572519083
0.3496728515625,0.42541534423828126,-0.15627502441406252,0.1984732824427481,0.04580152671755725,0.030534351145038167
0.39966888427734376,0.348475341796875,-0.23201751708984375,0.3053435114503817,0.08396946564885496,0.03816793893129771
0.149688720703125,0.20836669921875,-0.15417938232421877,0.29770992366412213,0.05343511450381679,0.05343511450381679
0.3814068603515625,-0.017663269042968752,-0.25956024169921876,0.1984732824427481,-0.1297709923664122,0.030534351145038167
0.3059637451171875,-0.08891510009765625,-0.2547702026367188,0.05343511450381679,0.03816793893129771,-0.08396946564885496
0.32602203369140625,0.1287322998046875,-0.26734405517578125,-0.19083969465648853,-0.12213740458015267,0.007633587786259542
0.2963836669921875,-0.11346405029296876,-0.3622467041015625,-0.030534351145038167,0.07633587786259542,-0.05343511450381679
0.18591339111328126,0.1598675537109375,-0.19728973388671875,-0.06870229007633588,0.015267175572519083,-0.015267175572519083
0.24998016357421876,0.01466949462890625,-0.30027557373046876,-0.1297709923664122,-0.022900763358778626,0.022900763358778626
0.21285736083984377,0.09550140380859376,-0.29338989257812503,0.05343511450381679,0.015267175572519083,-0.007633587786259542
0.197589111328125,0.0676593017578125,-0.2832110595703125,0.05343511450381679,0.007633587786259542,0.0
0.17932708740234377,0.03622467041015625,-0.23920257568359377,0.03816793893129771,-0.015267175572519083,-0.030534351145038167
0.16645385742187502,-0.061671752929687504,-0.22303619384765627,0.022900763358778626,-0.030534351145038167,0.015267175572519083
0.17693206787109375,-0.15567626953125,-0.3311114501953125,0.13740458015267176,-0.03816793893129771,-0.0916030534351145
0.17932708740234377,-0.14699432373046875,-0.25926086425781253,0.0,0.022900763358778626,-0.007633587786259542
0.17184265136718752,-0.0712518310546875,-0.16046630859375,-0.06870229007633588,0.0,0.007633587786259542
-0.6840774536132813,1.0603948974609376,1.0720706176757813,-0.42748091603053434,-0.22900763358778625,-0.05343511450381679
-1.9423608398437502,1.6615447998046875,1.2768447875976563,0.09923664122137404,-0.4809160305343511,0.8931297709923663
-4.158652038574219,1.7881814575195314,1.0337503051757813,0.0916030534351145,-1.1832061068702289,1.648854961832061
-4.760999450683594,2.120490417480469,0.104183349609375,0.16793893129770993,-1.3129770992366412,2.7404580152671754
-3.1033465576171877,1.5774197387695312,-0.6149212646484375,-0.7862595419847328,-1.4961832061068703,2.9618320610687023
-0.6727011108398437,0.22602996826171876,-0.19399658203125,-0.46564885496183206,-1.748091603053435,2.4580152671755724
2.359992370605469,-1.1879296875,-0.4454736328125,-0.03816793893129771,-0.8702290076335878,1.3282442748091603
3.8470001220703125,-1.3451028442382813,-0.1119671630859375,0.04580152671755725,-0.21374045801526717,0.3053435114503817
3.5988162231445315,-1.3953982543945314,-0.3373983764648438,0.022900763358778626,-0.2213740458015267,-0.1450381679389313
-0.058977355957031255,-3.0443692016601562,-1.4786251831054689,0.7786259541984732,1.8931297709923662,-2.7404580152671754
-4.466112670898438,-1.45377685546875,-1.0789562988281252,1.045801526717557,1.2366412213740459,-2.847328244274809
-3.8113742065429688,1.793570251464844,1.0106982421875002,0.6259541984732824,0.6183206106870229,-2.3053435114503817
0.8930429077148438,1.443897399902344,1.179547119140625,0.41221374045801523,0.10687022900763359,-0.40458015267175573
1.090931396484375,2.3177801513671876,0.8427474975585938,-0.16793893129770993,-0.007633587786259542,0.022900763358778626
0.9196875,2.16509765625,0.8619076538085938,0.21374045801526717,-0.03816793893129771,0.3511450381679389
-0.13861175537109377,2.9270132446289066,0.729283447265625,-0.45038167938931295,-0.15267175572519084,1.3587786259541985
-1.36276611328125,2.1240829467773437,0.6349795532226563,-0.19083969465648853,-0.3053435114503817,2.099236641221374
-1.4292279052734376,0.7107220458984376,0.5667214965820313,-0.6717557251908397,-0.4961832061068702,2.3664122137404577
-0.47062133789062505,-0.6634204101562501,0.5298980712890625,0.0,-0.9312977099236641,2.3053435114503817
1.9935543823242188,-2.5114773559570316,-0.003592529296875,-0.061068702290076333,-0.38167938931297707,1.0534351145038168
2.7976821899414066,-2.1234841918945313,0.290994873046875,-0.2748091603053435,-0.26717557251908397,0.022900763358778626
2.574945373535156,-0.35176849365234375,0.27542724609375,0.030534351145038167,0.3893129770992366,-0.41221374045801523
1.5238311767578125,-0.469423828125,0.07903564453125,-0.015267175572519083,0.7251908396946565,-1.1908396946564885
0.4808001708984375,-0.9693841552734376,-0.08232879638671875,0.7175572519083969,1.2595419847328244,-2.198473282442748
-0.8891510009765625,1.3525872802734376,0.5798941040039063,-0.10687022900763359,1.5267175572519083,-1.7099236641221374
-0.39128631591796875,1.4295272827148438,2.569556579589844,0.32061068702290074,1.6259541984732824,-2.2519083969465647
-0.9319619750976563,2.3701712036132814,3.1931597900390627,0.38167938931297707,1.4885496183206106,-1.465648854961832
1.3669573974609375,1.8908679199218752,2.1381536865234376,0.6946564885496183,0.23664122137404578,0.24427480916030533
1.8139279174804688,0.16106506347656252,0.8729846191406251,-0.07633587786259542,-0.16793893129770993,0.08396946564885496
1.785187683105469,0.0718505859375,0.7301815795898438,-0.12213740458015267,0.0916030534351145,-0.015267175572519083
1.6181350708007813,0.34248779296875004,0.8205935668945313,-0.061068702290076333,0.030534351145038167,-0.061068702290076333
1.5908917236328126,0.286204833984375,0.7182064819335938,0.07633587786259542,-0.015267175572519083,0.030534351145038167
1.4747332763671877,0.23980133056640626,0.5745053100585937,-0.022900763358778626,0.03816793893129771,0.05343511450381679
1.3642630004882814,0.5310955810546876,0.5604345703125,-0.22900763358778625,0.06870229007633588,-0.09923664122137404
1.2831317138671876,0.678988037109375,0.6424639892578126,-0.4198473282442748,-0.1297709923664122,-0.030534351145038167
1.1948153686523437,0.4604425048828125,0.2664459228515625,0.03816793893129771,-0.09923664122137404,0.11450381679389313
1.1756552124023438,0.07933502197265625,0.24339385986328127,0.282442748091603,0.06870229007633588,-0.007633587786259542
1.0289602661132813,0.36015106201171876,0.19728973388671875,0.20610687022900762,0.022900763358778626,0.022900763358778626
1.0092013549804688,0.2496807861328125,0.11795471191406251,0.12213740458015267,0.0,0.007633587786259542
0.9684860229492188,0.18411712646484377,0.23860382080078127,0.17557251908396945,0.03816793893129771,0.030534351145038167
0.8870553588867188,0.04340972900390625,0.1239422607421875,0.1450381679389313,-0.061068702290076333,0.04580152671755725
0.731678466796875,-0.1119671630859375,-0.144898681640625,0.1984732824427481,0.015267175572519083,0.06870229007633588
0.8238867187500001,-0.1347198486328125,0.2963836669921875,0.25190839694656486,0.007633587786259542,-0.09923664122137404
0.6828799438476563,0.147293701171875,0.044307861328125,-0.06870229007633588,-0.10687022900763359,0.0916030534351145
0.7200027465820313,-0.19699035644531251,-0.09610015869140626,-0.04580152671755725,-0.007633587786259542,0.030534351145038167
0.5882766723632813,-0.23022125244140626,0.094603271484375,-0.1297709923664122,0.0,-0.015267175572519083
0.6092330932617188,-0.14459930419921876,-0.026345214843750003,0.030534351145038167,0.0,-0.015267175572519083
0.5412744140625,0.0293389892578125,0.050295410156250005,-0.022900763358778626,0.05343511450381679,-0.06870229007633588
0.5158273315429688,0.041613464355468754,-0.0047900390625,-0.13740458015267176,-0.015267175572519083,-0.030534351145038167
0.48020141601562505,0.03323089599609375,-0.02005828857421875,-0.1297709923664122,-0.007633587786259542,-0.015267175572519083
0.4218228149414063,0.0664617919921875,-0.052690429687500005,-0.05343511450381679,-0.007633587786259542,0.030534351145038167
0.458646240234375,0.06676116943359375,-0.16735198974609375,0.10687022900763359,0.04580152671755725,0.015267175572519083
0.39128631591796875,-0.22243743896484375,-0.0101788330078125,0.5038167938931297,0.07633587786259542,0.030534351145038167
0.324525146484375,-0.15208374023437501,-0.19699035644531251,0.16030534351145037,0.0,0.022900763358778626
0.41733215332031254,-0.36134857177734375,-0.1574725341796875,0.10687022900763359,-0.04580152671755725,0.04580152671755725
0.40386016845703127,-0.50055908203125,-0.15088623046875002,0.10687022900763359,0.07633587786259542,-0.11450381679389313
0.4002676391601563,-0.22123992919921875,-0.19160156250000002,-0.07633587786259542,-0.030534351145038167,-0.030534351145038167
0.4032614135742188,-0.45984375,-0.22034179687500002,-0.015267175572519083,0.061068702290076333,-0.022900763358778626
0.3634442138671875,-0.2856060791015625,-0.15657440185546875,-0.007633587786259542,0.04580152671755725,-0.03816793893129771
0.29728179931640625,-0.2520758056640625,-0.26734405517578125,-0.11450381679389313,-0.05343511450381679,0.04580152671755725
0.35835479736328124,-0.41763153076171877,-0.30147308349609375,-0.08396946564885496,-0.015267175572519083,0.007633587786259542
0.29788055419921877,-0.28650421142578125,-0.20058288574218752,0.11450381679389313,0.022900763358778626,-0.015267175572519083
0.2748284912109375,-0.2329156494140625,-0.23680755615234375,0.05343511450381679,-0.022900763358778626,0.007633587786259542
0.2505789184570313,-0.4014651489257813,-0.1239422607421875,0.2748091603053435,-0.015267175572519083,0.030534351145038167
-0.4454736328125,0.1598675537109375,1.167572021484375,1.1374045801526718,-0.04580152671755725,0.10687022900763359
-3.0488598632812502,2.621947631835938,1.7405804443359376,-0.20610687022900762,-0.5038167938931297,1.4045801526717556
-5.667514343261719,2.089355163574219,0.5418731689453126,0.183206106870229,-1.4732824427480915,2.9236641221374047
-6.623725891113281,1.6459771728515626,-1.0675799560546875,0.007633587786259542,-0.4809160305343511,3.6717557251908395
-2.096839599609375,-0.49487091064453126,0.0700543212890625,-0.6259541984732824,-1.282442748091603,2.7709923664122136
1.3412109375,-1.921703796386719,0.061671752929687504,0.061068702290076333,-1.1068702290076335,1.8625954198473282
3.519181823730469,-2.8862979125976564,-0.7825726318359375,-0.564885496183206,-0.4961832061068702,-0.015267175572519083
2.2480252075195315,-2.1779708862304688,-1.0538085937500001,0.29770992366412213,-0.022900763358778626,-1.1068702290076335
1.0328521728515625,-2.545007629394531,-1.6822018432617187,0.10687022900763359,1.1374045801526718,-2.16793893129771
-2.1058209228515627,-1.5402969360351564,-0.9322613525390625,1.1374045801526718,1.5114503816793892,-3.351145038167939
-1.37234619140625,3.8206549072265625,0.6562353515625,-0.34351145038167935,-0.4351145038167939,-1.3587786259541985
0.7382647705078126,1.859732666015625,1.0822494506835938,0.4198473282442748,0.33587786259541985,-0.15267175572519084
0.7298822021484376,2.840193786621094,0.7828720092773438,0.15267175572519084,-0.22900763358778625,0.015267175572519083
0.7433541870117187,2.525548095703125,0.2613565063476563,0.16030534351145037,0.05343511450381679,0.5877862595419847
-0.18172210693359375,2.6764343261718753,0.2915936279296875,-0.23664122137404578,-0.08396946564885496,1.534351145038168
-0.9349557495117188,1.6268170166015625,-0.26614654541015625,0.32061068702290074,0.17557251908396945,2.145038167938931
-0.887354736328125,0.9361532592773438,-0.25896148681640624,-1.0076335877862594,0.6412213740458015,2.2748091603053435
-0.47301635742187503,-0.1323248291015625,0.4643344116210938,-1.2213740458015268,-0.282442748091603,2.541984732824427
1.4747332763671877,-2.3710693359375,0.164058837890625,-0.9770992366412213,-0.7633587786259541,1.3129770992366412
2.7530749511718753,-1.8462606811523439,0.1730401611328125,0.16030534351145037,0.12213740458015267,0.21374045801526717
2.605481872558594,-1.8363812255859375,0.7682025146484376,0.05343511450381679,0.04580152671755725,-0.5419847328244275
1.2792398071289064,-0.5885760498046876,0.0461041259765625,0.34351145038167935,0.3511450381679389,-1.5419847328244274
0.22363494873046877,-0.3849993896484375,-0.40505767822265626,0.26717557251908397,0.9618320610687022,-2.2213740458015265
-0.437091064453125,0.7274871826171876,0.469423828125,-0.6030534351145038,2.0610687022900764,-2.2213740458015265
0.17483642578125,1.1469149780273438,2.376757507324219,-0.007633587786259542,2.312977099236641,-2.145038167938931
-1.9983444213867188,2.3812481689453127,3.3030313110351566,0.648854961832061,2.541984732824427,-2.1526717557251906
0.28410919189453127,3.1165191650390627,3.5578015136718752,0.6641221374045801,0.6106870229007634,-0.549618320610687
2.0435504150390624,0.9181906127929688,1.7073495483398438,0.4580152671755725,0.7099236641221374,0.061068702290076333
1.8696121215820314,0.4233197021484375,1.5528707885742188,-0.1297709923664122,-0.17557251908396945,0.06870229007633588
1.956431579589844,0.17962646484375,0.9134005737304688,0.03816793893129771,-0.06870229007633588,0.022900763358778626
1.8546432495117189,0.41583526611328125,0.5912704467773438,-0.7175572519083969,-0.20610687022900762,0.030534351145038167
1.85135009765625,0.21644989013671875,0.5583389282226563,-0.17557251908396945,-0.061068702290076333,-0.09923664122137404
1.4346166992187501,0.923280029296875,0.929267578125,-0.4198473282442748,-0.05343511450381679,-0.15267175572519084
1.4426998901367187,0.8349636840820313,0.6804849243164063,-0.5038167938931297,-0.2213740458015267,0.030534351145038167
1.409169616699219,0.6616241455078126,0.4305047607421875,-0.3969465648854962,-0.0916030534351145,0.0
1.2807366943359375,0.6577322387695312,0.5322930908203125,0.4351145038167939,0.12213740458015267,0.05343511450381679
1.1864328002929687,0.678988037109375,0.5733078002929688,0.2748091603053435,0.04580152671755725,0.04580152671755725
1.1187734985351563,0.5730084228515625,0.41852966308593753,-0.022900763358778626,-0.07633587786259542,0.061068702290076333
1.0265652465820314,0.28410919189453127,0.1550775146484375,0.2595419847328244,-0.06870229007633588,0.03816793893129771
1.141226806640625,0.27153533935546875,-0.0041912841796875,0.33587786259541985,0.03816793893129771,-0.007633587786259542
0.7313790893554688,-0.07753875732421875,0.33141082763671875,0.5572519083969465,0.16793893129770993,-0.022900763358778626
0.8954379272460938,0.1293310546875,0.054187316894531254,-0.022900763358778626,-0.015267175572519083,0.030534351145038167
0.8361611938476563,-0.046403503417968756,0.013771362304687501,-0.2213740458015267,-0.061068702290076333,0.0
0.7613168334960938,-0.27033782958984376,0.001197509765625,-0.12213740458015267,0.0,-0.015267175572519083
0.7418572998046875,0.07604187011718751,0.0017962646484375,-0.06870229007633588,0.09923664122137404,-0.03816793893129771
0.6463558959960938,0.055085449218750006,0.1347198486328125,-0.022900763358778626,-0.04580152671755725,-0.022900763358778626
0.67779052734375,0.3263214111328125,-0.013471984863281251,-0.23664122137404578,-0.04580152671755725,-0.05343511450381679
0.5583389282226563,0.35835479736328124,-0.015867004394531252,-0.4351145038167939,-0.10687022900763359,-0.015267175572519083
0.499361572265625,0.40475830078125,-0.03382965087890625,-0.4198473282442748,-0.09923664122137404,0.007633587786259542
0.47181884765625004,0.3799099731445313,-0.031734008789062504,-0.05343511450381679,-0.007633587786259542,0.022900763358778626
0.5161267089843751,0.49097900390625004,-0.05987548828125,0.19083969465648853,0.07633587786259542,0.03816793893129771
0.4927752685546875,0.4101470947265625,-0.001197509765625,0.26717557251908397,0.07633587786259542,0.05343511450381679
0.4628375244140625,0.24758514404296877,-0.07634124755859376,0.32061068702290074,0.08396946564885496,0.061068702290076333
0.3823049926757813,-0.015867004394531252,-0.116158447265625,0.37404580152671757,0.03816793893129771,0.015267175572519083
0.41164398193359375,-0.1251397705078125,-0.16136444091796875,0.2213740458015267,0.03816793893129771,-0.030534351145038167
0.5334906005859376,-0.1293310546875,-0.20387603759765627,-0.061068702290076333,-0.1450381679389313,-0.04580152671755725
0.5334906005859376,-0.1293310546875,-0.20387603759765627,-0.061068702290076333,-0.1450381679389313,-0.04580152671755725
0.4002676391601563,-0.27333160400390627,-0.23501129150390626,-0.1297709923664122,-0.09923664122137404,0.022900763358778626
0.38619689941406254,-0.49337402343750003,-0.23800506591796877,-0.1297709923664122,-0.03816793893129771,-0.007633587786259542
0.38619689941406254,-0.49337402343750003,-0.23800506591796877,-0.1297709923664122,-0.03816793893129771,-0.007633587786259542
-0.039218444824218754,0.1299298095703125,0.4248165893554688,-0.40458015267175573,-0.16030534351145037,-0.1984732824427481
-1.4911990356445313,0.43379791259765627,2.269281005859375,0.6412213740458015,-0.6106870229007634,0.4427480916030534
-3.9939944458007814,1.1549981689453126,2.0112176513671876,0.7404580152671756,-1.366412213740458,1.450381679389313
-5.926475830078125,2.1444406127929687,1.0960208129882814,0.29770992366412213,-1.534351145038168,2.717557251908397
-5.926475830078125,2.1444406127929687,1.0960208129882814,0.29770992366412213,-1.534351145038168,2.717557251908397
-5.926475830078125,2.1444406127929687,1.0960208129882814,0.29770992366412213,-1.534351145038168,2.717557251908397
-5.926475830078125,2.1444406127929687,1.0960208129882814,0.29770992366412213,-1.534351145038168,2.717557251908397
-5.926475830078125,2.1444406127929687,1.0960208129882814,0.29770992366412213,-1.534351145038168,2.717557251908397
-5.926475830078125,2.1444406127929687,1.0960208129882814,0.29770992366412213,-1.534351145038168,2.717557251908397
-5.926475830078125,2.1444406127929687,1.0960208129882814,0.29770992366412213,-1.534351145038168,2.717557251908397
-5.926475830078125,2.1444406127929687,1.0960208129882814,0.29770992366412213,-1.534351145038168,2.717557251908397
-5.926475830078125,2.1444406127929687,1.0960208129882814,0.29770992366412213,-1.534351145038168,2.717557251908397
-5.926475830078125,2.1444406127929687,1.0960208129882814,0.29770992366412213,-1.534351145038168,2.717557251908397
-5.926475830078125,2.1444406127929687,1.0960208129882814,0.29770992366412213,-1.534351145038168,2.717557251908397
-5.926475830078125,2.1444406127929687,1.0960208129882814,0.29770992366412213,-1.534351145038168,2.717557251908397
-5.926475830078125,2.1444406127929687,1.0960208129882814,0.29770992366412213,-1.534351145038168,2.717557251908397
-5.926475830078125,2.1444406127929687,1.0960208129882814,0.29770992366412213,-1.534351145038168,2.717557251908397
-5.926475830078125,2.1444406127929687,1.0960208129882814,0.29770992366412213,-1.534351145038168,2.717557251908397
-0.5909710693359376,-0.8044271850585938,0.2041754150390625,-0.20610687022900762,-1.4351145038167938,2.236641221374046
2.6123675537109374,-2.442321166992188,-0.6460565185546875,0.0,-0.5114503816793893,0.3129770992366412
2.6123675537109374,-2.442321166992188,-0.6460565185546875,0.0,-0.5114503816793893,0.3129770992366412
1.6965719604492189,0.07454498291015625,0.487386474609375,0.1297709923664122,0.4961832061068702,-0.9618320610687022
1.1382330322265626,0.3607498168945313,0.40954833984375,0.05343511450381679,0.7175572519083969,-1.1450381679389312
0.10687774658203125,-0.43349853515625003,-0.53887939453125,-0.061068702290076333,1.5190839694656488,-2.4732824427480917
-1.2412188720703126,0.4727169799804688,1.0840457153320313,-0.8702290076335878,2.778625954198473,-2.2061068702290076
-1.4792239379882812,3.4182916259765626,2.3872357177734376,-1.198473282442748,1.297709923664122,-1.4809160305343512
-1.7720150756835937,3.9913000488281254,3.6110906982421875,0.20610687022900762,1.9923664122137403,-1.9312977099236641
0.7463479614257813,2.7994784545898437,3.1449600219726563,0.030534351145038167,-0.07633587786259542,-0.022900763358778626
1.9917581176757813,0.8181985473632812,1.5654446411132814,-0.030534351145038167,-0.061068702290076333,-0.0916030534351145
1.9351757812500001,0.33769775390625,0.7095245361328125,0.15267175572519084,0.03816793893129771,-0.05343511450381679
1.7714163208007814,0.446671142578125,0.8660989379882813,-0.04580152671755725,0.10687022900763359,0.07633587786259542
1.663341064453125,0.3649411010742188,0.8828640747070313,-0.061068702290076333,-0.061068702290076333,0.0
1.5181430053710938,0.528101806640625,0.5466632080078125,-0.04580152671755725,-0.04580152671755725,0.08396946564885496
1.3930032348632813,0.5155279541015625,0.6882687377929688,-0.022900763358778626,0.12213740458015267,-0.11450381679389313
1.3669573974609375,0.6514453125,0.4113446044921875,-0.37404580152671757,-0.20610687022900762,0.030534351145038167
1.2175680541992189,0.5316943359375,0.5511538696289062,-0.32061068702290074,0.0,-0.007633587786259542
1.1690689086914063,0.6906637573242188,0.386795654296875,0.4198473282442748,0.13740458015267176,0.007633587786259542
1.0481204223632814,0.3619473266601563,0.26225463867187504,0.1297709923664122,-0.05343511450381679,0.07633587786259542
0.8762777709960938,0.27033782958984376,0.1484912109375,0.022900763358778626,-0.05343511450381679,0.061068702290076333
0.8954379272460938,0.2900967407226563,0.07065307617187501,-0.17557251908396945,-0.0916030534351145,0.030534351145038167
0.760418701171875,0.27931915283203124,0.01466949462890625,-0.03816793893129771,-0.03816793893129771,0.05343511450381679
0.9328601074218751,0.13412109375,0.16585510253906252,0.4961832061068702,0.07633587786259542,-0.06870229007633588
0.7574249267578126,-0.046403503417968756,0.046403503417968756,0.15267175572519084,0.007633587786259542,0.007633587786259542
0.5757028198242188,-0.3595523071289063,-0.02125579833984375,-0.12213740458015267,-0.015267175572519083,-0.061068702290076333
0.5996530151367188,-0.17962646484375,-0.0221539306640625,-0.10687022900763359,-0.030534351145038167,-0.06870229007633588
0.5834866333007813,-0.006286926269531251,-0.07873626708984376,-0.2595419847328244,-0.022900763358778626,-0.05343511450381679
0.5409750366210938,0.094603271484375,0.024548950195312502,-0.3511450381679389,-0.04580152671755725,-0.007633587786259542
0.46493316650390626,0.3155438232421875,-0.089813232421875,-0.46564885496183206,-0.05343511450381679,0.030534351145038167
0.4843927001953125,0.33799713134765624,0.0,-0.22900763358778625,-0.022900763358778626,0.03816793893129771
0.4218228149414063,0.3212319946289063,-0.039218444824218754,0.08396946564885496,0.04580152671755725,0.03816793893129771
0.40954833984375,0.20028350830078126,0.00987945556640625,0.34351145038167935,0.09923664122137404,0.007633587786259542
0.37092864990234375,0.0676593017578125,-0.039218444824218754,0.42748091603053434,0.015267175572519083,-0.03816793893129771
0.4122427368164063,-0.089813232421875,-0.07065307617187501,-0.2595419847328244,-0.13740458015267176,-0.015267175572519083
0.38470001220703126,-0.2517764282226563,-0.23171813964843752,-0.007633587786259542,0.04580152671755725,-0.007633587786259542
0.3394940185546875,0.03622467041015625,-0.11286529541015626,-0.05343511450381679,0.07633587786259542,-0.06870229007633588
0.23381378173828127,0.0736468505859375,-0.11047027587890626,-0.1984732824427481,-0.07633587786259542,0.04580152671755725
0.31374755859375003,-0.0796343994140625,-0.17753082275390625,0.07633587786259542,0.022900763358778626,-0.022900763358778626
0.17603393554687502,0.13442047119140627,-0.07843688964843751,0.20610687022900762,0.0,0.06870229007633588
0.0293389892578125,0.3023712158203125,0.4098477172851563,-0.1297709923664122,-0.16793893129770993,0.1984732824427481
-1.2199630737304688,1.3178594970703126,2.1417462158203127,-0.45038167938931295,-0.4961832061068702,0.2900763358778626
-3.996090087890625,1.8402731323242187,2.4614813232421877,0.2213740458015267,-1.6259541984732824,1.1450381679389312
-6.400989074707032,2.8231292724609376,0.8891510009765625,0.48854961832061067,-2.1221374045801524,2.2748091603053435
-2.989882507324219,0.8876541137695313,0.17124389648437502,-0.7175572519083969,-1.8015267175572518,2.6946564885496183
1.347198486328125,-0.7598199462890626,-0.277822265625,0.6412213740458015,-1.4351145038167938,1.6259541984732824
3.207829284667969,-2.329156494140625,-0.9154962158203126,0.5801526717557252,-0.05343511450381679,-0.8931297709923663
1.9585272216796876,-1.0244696044921875,-1.5274237060546876,-0.03816793893129771,0.282442748091603,-0.9389312977099237
1.2109817504882814,-2.5935067749023437,-1.3774356079101564,-0.05343511450381679,1.4885496183206106,-2.282442748091603
-2.395318908691406,-1.7959652709960938,-0.050295410156250005,0.48854961832061067,1.7709923664122136,-3.0076335877862594
-3.9739361572265626,-1.2699591064453126,-0.6741979980468751,0.8091603053435115,1.045801526717557,-3.091603053435114
-1.6819024658203126,2.6276358032226566,0.5945635986328125,0.5343511450381679,-0.25190839694656486,-0.9847328244274809
0.03382965087890625,1.7465679931640625,0.5978567504882812,0.25190839694656486,0.3053435114503817,-0.366412213740458
-0.025746459960937502,2.3593936157226563,0.5179229736328125,-0.0916030534351145,-0.16030534351145037,0.2213740458015267
-0.10987152099609375,1.7866845703125,0.4724176025390625,-0.15267175572519084,0.061068702290076333,0.732824427480916
-0.8301736450195313,1.3810281372070312,0.11226654052734375,-0.46564885496183206,-0.4427480916030534,1.5114503816793892
-1.43701171875,0.525706787109375,0.219144287109375,-0.33587786259541985,-0.25190839694656486,2.236641221374046
-1.18553466796875,-0.09310638427734376,0.35625915527343754,-0.9847328244274809,-1.1526717557251909,2.7404580152671754
1.8073416137695313,-2.335742797851563,0.0017962646484375,0.12213740458015267,-0.4351145038167939,2.16793893129771
3.0620324707031252,-1.7082476806640625,0.1550775146484375,-0.17557251908396945,0.12213740458015267,0.2595419847328244
3.2467483520507816,-1.025068359375,0.6143225097656251,-0.04580152671755725,0.11450381679389313,-0.1984732824427481
2.4243585205078126,-0.44697052001953125,0.6735992431640625,0.29770992366412213,0.1297709923664122,-0.5419847328244275
1.5920892333984376,-0.3619473266601563,-0.23501129150390626,0.5801526717557252,0.37404580152671757,-1.2366412213740459
0.4125421142578125,-0.6209088134765626,-0.36314483642578127,0.34351145038167935,0.8625954198473282,-1.8931297709923662
-0.3394940185546875,0.17034576416015626,-0.4290078735351563,-0.8091603053435115,2.5801526717557253,-2.282442748091603
-2.0836669921875,0.750838623046875,2.45489501953125,0.015267175572519083,2.8244274809160306,-2.480916030534351
-2.6701473999023437,2.841391296386719,2.8219317626953124,0.7633587786259541,2.1374045801526718,-1.8091603053435115
-0.8759783935546875,2.7033782958984376,3.1024484252929687,1.1603053435114503,0.9770992366412213,-0.40458015267175573
1.5247293090820313,1.7274078369140626,1.9384689331054688,0.5419847328244275,-0.061068702290076333,0.6183206106870229
2.0677999877929687,0.137713623046875,1.09452392578125,0.16030534351145037,-0.03816793893129771,0.1297709923664122
1.9393670654296875,0.010777587890625,1.0795550537109375,-0.24427480916030533,-0.0916030534351145,0.05343511450381679
1.9414627075195314,0.050295410156250005,0.640667724609375,0.16030534351145037,-0.03816793893129771,0.015267175572519083
1.7896783447265625,0.3296145629882813,0.44756927490234377,-0.0916030534351145,0.0,-0.007633587786259542
1.744771728515625,0.17693206787109375,0.5760021972656251,-0.05343511450381679,0.007633587786259542,-0.022900763358778626
1.627415771484375,0.2442919921875,0.7529342651367188,-0.11450381679389313,-0.03816793893129771,-0.13740458015267176
1.5396981811523438,0.415535888671875,0.46373565673828127,-0.366412213740458,-0.1984732824427481,0.03816793893129771
1.4582675170898438,0.6951544189453125,0.20207977294921875,-0.47328244274809156,-0.007633587786259542,-0.20610687022900762
1.327738952636719,0.4981640625,0.4290078735351563,-0.21374045801526717,-0.12213740458015267,0.12213740458015267
1.35797607421875,0.10837463378906251,0.2721340942382813,0.42748091603053434,0.0916030534351145,-0.04580152671755725
1.1864328002929687,0.6807843017578126,0.1580712890625,0.3893129770992366,0.1450381679389313,0.06870229007633588
1.204395446777344,0.19848724365234377,0.33560211181640626,0.3511450381679389,0.0,0.1450381679389313
1.114881591796875,0.24399261474609377,0.18202148437500001,0.061068702290076333,-0.030534351145038167,0.15267175572519084
1.0244696044921875,-0.0425115966796875,0.02484832763671875,0.015267175572519083,-0.24427480916030533,0.05343511450381679
0.9047186279296875,-0.01676513671875,-0.34757720947265625,0.1297709923664122,0.04580152671755725,0.09923664122137404
1.0041119384765627,-0.5523513793945313,0.2640509033203125,0.7251908396946565,0.21374045801526717,0.007633587786259542
0.9867480468750001,-0.108973388671875,-0.08831634521484376,0.1297709923664122,-0.030534351145038167,0.022900763358778626
0.8577163696289063,-0.38350250244140627,-0.06915618896484375,0.32061068702290074,0.0916030534351145,0.11450381679389313
0.8170010375976563,-0.5691165161132813,0.02305206298828125,-0.09923664122137404,-0.06870229007633588,-0.022900763358778626
0.7547305297851563,-0.47301635742187503,-0.11795471191406251,-0.12213740458015267,-0.061068702290076333,-0.04580152671755725
0.7649093627929688,-0.38559814453125,-0.2173480224609375,-0.1984732824427481,-0.06870229007633588,-0.07633587786259542
0.7134164428710937,-0.3212319946289063,-0.16016693115234376,-0.12213740458015267,0.015267175572519083,-0.09923664122137404
0.6415658569335938,-0.061671752929687504,-0.11106903076171876,-0.2213740458015267,-0.007633587786259542,-0.03816793893129771
0.57719970703125,0.0544866943359375,-0.1197509765625,-0.25190839694656486,-0.04580152671755725,0.015267175572519083
0.5619314575195313,-0.0032931518554687503,-0.18052459716796876,-0.19083969465648853,-0.06870229007633588,0.0
0.5334906005859376,0.09250762939453125,-0.22752685546875,-0.11450381679389313,0.022900763358778626,-0.015267175572519083
0.4942721557617188,0.07574249267578126,-0.16435821533203127,0.24427480916030533,0.06870229007633588,0.007633587786259542
0.3487747192382813,0.26105712890625,-0.12184661865234375,-0.183206106870229,-0.05343511450381679,0.015267175572519083
0.4056564331054688,0.12603790283203126,-0.049097900390625004,0.06870229007633588,-0.03816793893129771,0.0
0.30865814208984377,0.15956817626953126,-0.11585906982421876,-0.20610687022900762,-0.061068702290076333,-0.05343511450381679
0.4999603271484375,0.00868194580078125,-0.2856060791015625,-0.061068702290076333,-0.03816793893129771,-0.030534351145038167
0.3143463134765625,-0.01526824951171875,-0.15298187255859375,0.2900763358778626,0.22900763358778625,-0.1297709923664122
0.27872039794921877,0.33709899902343754,-0.03742218017578125,0.007633587786259542,-0.030534351145038167,-0.015267175572519083
0.3203338623046875,0.1095721435546875,-0.22632934570312502,-0.23664122137404578,-0.08396946564885496,0.07633587786259542
0.2505789184570313,0.04999603271484375,-0.17184265136718752,-0.2213740458015267,-0.06870229007633588,-0.061068702290076333
-0.06466552734375,0.8858578491210938,0.5786965942382812,-1.2061068702290076,0.24427480916030533,-0.4809160305343511
-2.4405249023437503,0.6457571411132813,2.6204507446289065,0.45038167938931295,-0.564885496183206,0.5877862595419847
-4.772375793457032,1.6591497802734376,0.7532336425781251,0.8091603053435115,-1.9083969465648853,1.8549618320610686
-5.706134033203125,2.0639080810546875,-1.37713623046875,0.08396946564885496,-1.8702290076335877,3.297709923664122
-4.794529724121094,0.4601431274414063,-1.580712890625,-1.1221374045801527,-2.312977099236641,3.610687022900763
-0.8675958251953125,-0.756826171875,-0.8472381591796876,-0.4198473282442748,-2.236641221374046,2.427480916030534
2.2782623291015627,-2.37825439453125,-1.7720150756835937,-0.5419847328244275,-0.7862595419847328,1.2213740458015268
1.858235778808594,-2.057022399902344,-1.4355148315429689,0.4351145038167939,0.2748091603053435,-1.7175572519083968
0.1874102783203125,-2.1474343872070314,-1.72201904296875,0.21374045801526717,2.030534351145038,-2.8091603053435112
-4.46671142578125,-1.287322998046875,-1.2079879760742187,1.1603053435114503,1.984732824427481,-3.6259541984732824
-3.0608349609375,1.888173522949219,-0.6780899047851563,-1.9389312977099236,1.7633587786259541,-2.068702290076336
-0.9705816650390625,2.634521484375,2.2375469970703126,0.23664122137404578,0.5572519083969465,-0.9312977099236641
-0.06945556640625,2.1207897949218752,1.8091378784179688,-0.10687022900763359,0.06870229007633588,-0.2748091603053435
-0.6792874145507812,2.319576416015625,2.4650738525390627,0.33587786259541985,-0.0916030534351145,0.33587786259541985
-1.4385086059570313,2.4923171997070312,1.73159912109375,-0.22900763358778625,-0.7404580152671756,1.198473282442748
-2.031874694824219,1.5250286865234375,0.5385800170898438,-0.6106870229007634,-1.3587786259541985,1.549618320610687
-2.069296875,0.47840515136718753,0.2544708251953125,-0.41221374045801523,-2.091603053435114,2.519083969465649
-1.638193359375,0.10298583984375001,0.42302032470703127,-0.03816793893129771,-2.709923664122137,2.4427480916030535
2.06211181640625,-0.798739013671875,-0.6753955078125,0.2748091603053435,0.3053435114503817,-0.23664122137404578
2.1007315063476564,0.14639556884765625,0.2796185302734375,0.282442748091603,0.9236641221374046,-0.7709923664122137
0.6828799438476563,0.4805007934570313,-0.17333953857421877,0.4580152671755725,1.2442748091603053,-1.916030534351145
-0.18920654296875,0.4876858520507813,2.3803500366210937,1.66412213740458,3.1221374045801524,-2.0229007633587783
-1.0822494506835938,2.3803500366210937,3.630550231933594,1.0305343511450382,2.030534351145038,-2.0610687022900764
1.28612548828125,1.8588345336914063,2.309098205566406,0.366412213740458,0.282442748091603,0.6030534351145038
2.0246896362304687,0.53408935546875,1.208287353515625,0.0916030534351145,-0.030534351145038167,0.0
1.8124310302734377,0.22034179687500002,1.0352471923828126,-0.1450381679389313,-0.07633587786259542,-0.022900763358778626
1.7205221557617187,0.59156982421875,0.5766009521484375,-0.13740458015267176,-0.06870229007633588,0.03816793893129771
1.6181350708007813,0.544866943359375,0.8178991699218751,-0.2595419847328244,-0.07633587786259542,-0.16793893129770993
1.4376104736328126,0.44786865234375,0.5816903686523438,0.19083969465648853,0.022900763358778626,-0.030534351145038167
1.32444580078125,0.4643344116210938,0.5236111450195313,0.21374045801526717,0.030534351145038167,0.061068702290076333
1.191522216796875,0.3155438232421875,0.25417144775390627,-0.19083969465648853,-0.13740458015267176,0.06870229007633588
1.025068359375,0.2775228881835938,0.20178039550781252,0.1297709923664122,-0.015267175572519083,0.030534351145038167
0.6658154296875001,-0.00029937744140625,0.4044589233398438,0.5419847328244275,0.007633587786259542,0.04580152671755725
0.7280859375000001,-0.02305206298828125,0.08322692871093751,0.13740458015267176,0.09923664122137404,-0.015267175572519083
0.7448510742187501,-0.32482452392578126,-0.01466949462890625,0.015267175572519083,0.03816793893129771,-0.030534351145038167
0.59396484375,-0.18112335205078126,0.12005035400390626,0.030534351145038167,0.030534351145038167,-0.10687022900763359
0.6221063232421875,0.0544866943359375,-0.017962646484375,-0.5038167938931297,-0.05343511450381679,-0.10687022900763359
0.469423828125,0.496966552734375,0.07634124755859376,-0.5419847328244275,-0.08396946564885496,0.007633587786259542
0.4571493530273438,0.5427713012695313,0.13322296142578124,0.04580152671755725,0.03816793893129771,0.06870229007633588
0.3107537841796875,0.3897894287109375,0.0676593017578125,0.4809160305343511,0.09923664122137404,0.061068702290076333
0.4589456176757813,0.09550140380859376,-0.05957611083984375,0.3969465648854962,0.04580152671755725,-0.022900763358778626
0.4751119995117188,-0.02784210205078125,-0.06556365966796876,-0.022900763358778626,-0.03816793893129771,0.0
0.39547760009765626,-0.10927276611328125,-0.17034576416015626,0.07633587786259542,0.08396946564885496,-0.015267175572519083
0.4876858520507813,0.23321502685546877,0.04999603271484375,-0.6183206106870229,0.20610687022900762,0.007633587786259542
-1.6085549926757814,1.2639715576171875,1.84656005859375,0.12213740458015267,0.37404580152671757,0.3053435114503817
-4.872068481445313,1.9929556274414064,-1.1349398803710937,-0.25190839694656486,-2.748091603053435,1.4122137404580153
-5.245990905761719,1.025068359375,-1.3567785644531252,-0.366412213740458,-2.3740458015267176,2.9083969465648853
-0.28291168212890627,0.44756927490234377,0.20327728271484377,-0.05343511450381679,-1.6717557251908397,2.0839694656488548
3.6721636962890627,-2.2950274658203127,-0.348475341796875,0.12213740458015267,-0.21374045801526717,0.32061068702290074
1.2780422973632812,-2.578537902832031,-1.7040563964843751,0.8473282442748091,0.6335877862595419,-2.030534351145038
-2.3629861450195313,-1.3097763061523438,-0.44457550048828126,0.1984732824427481,1.5725190839694656,-3.7022900763358777
-0.7738906860351563,2.9264144897460938,0.5894741821289062,-0.26717557251908397,-0.24427480916030533,-1.4198473282442747
-0.13412109375,3.147953796386719,1.197509765625,-0.04580152671755725,-0.3129770992366412,0.1984732824427481
-1.5953823852539064,2.4075933837890626,0.43828857421875,-0.2900763358778626,-0.2213740458015267,1.916030534351145
-2.4441174316406253,0.31883697509765624,0.33171020507812504,-1.0610687022900762,-0.33587786259541985,2.9236641221374047
-0.8906478881835938,-1.1181747436523437,0.36434234619140626,-0.366412213740458,-1.5877862595419847,2.3893129770992365
2.3665786743164063,-2.5093817138671874,-0.8927435302734376,0.0916030534351145,0.022900763358778626,0.183206106870229
1.3271401977539063,-0.3373983764648438,0.0718505859375,0.5801526717557252,0.8167938931297709,-1.2748091603053435
0.48948211669921876,0.5709127807617188,-0.21195922851562501,0.34351145038167935,0.6870229007633587,-1.6335877862595418
0.48948211669921876,0.5709127807617188,-0.21195922851562501,0.34351145038167935,0.6870229007633587,-1.6335877862595418
0.48948211669921876,0.5709127807617188,-0.21195922851562501,0.34351145038167935,0.6870229007633587,-1.6335877862595418
1.5325131225585937,2.33993408203125,2.1207897949218752,1.0381679389312977,-0.07633587786259542,-0.022900763358778626
1.76991943359375,0.07155120849609375,0.9128018188476563,-0.20610687022900762,-0.10687022900763359,0.10687022900763359
1.76991943359375,0.07155120849609375,0.9128018188476563,-0.20610687022900762,-0.10687022900763359,0.10687022900763359
1.5768209838867189,0.22483245849609376,0.5547463989257813,-0.11450381679389313,0.13740458015267176,-0.05343511450381679
1.5768209838867189,0.22483245849609376,0.5547463989257813,-0.11450381679389313,0.13740458015267176,-0.05343511450381679
1.3666580200195313,0.18471588134765626,0.44996429443359376,0.061068702290076333,0.06870229007633588,-0.05343511450381679
1.3666580200195313,0.18471588134765626,0.44996429443359376,0.061068702290076333,0.06870229007633588,-0.05343511450381679
1.2100836181640626,0.06316864013671876,0.13442047119140627,0.2748091603053435,0.061068702290076333,0.015267175572519083
1.2100836181640626,0.06316864013671876,0.13442047119140627,0.2748091603053435,0.061068702290076333,0.015267175572519083
1.2100836181640626,0.06316864013671876,0.13442047119140627,0.2748091603053435,0.061068702290076333,0.015267175572519083
0.8948391723632813,-0.449066162109375,0.06376739501953126,0.16793893129770993,0.0,0.0
0.8948391723632813,-0.449066162109375,0.06376739501953126,0.16793893129770993,0.0,0.0
0.6924600219726563,-0.36643798828125,0.0431103515625,-0.0916030534351145,-0.030534351145038167,-0.03816793893129771
0.6924600219726563,-0.36643798828125,0.0431103515625,-0.0916030534351145,-0.030534351145038167,-0.03816793893129771
0.8337661743164063,0.00269439697265625,-0.039218444824218754,-0.2748091603053435,0.061068702290076333,0.015267175572519083
0.8337661743164063,0.00269439697265625,-0.039218444824218754,-0.2748091603053435,0.061068702290076333,0.015267175572519083
0.5703140258789062,0.15956817626953126,-0.32721954345703125,-0.17557251908396945,0.007633587786259542,0.061068702290076333
0.5646258544921875,0.44068359375000005,0.017962646484375,-0.24427480916030533,0.022900763358778626,-0.015267175572519083
0.2939886474609375,0.37242553710937504,0.22363494873046877,0.3129770992366412,-0.03816793893129771,0.0
0.37392242431640627,0.3502716064453125,-0.24489074707031253,-0.007633587786259542,-0.030534351145038167,-0.030534351145038167
0.3308120727539063,0.20597167968750002,0.10388397216796875,0.1450381679389313,0.007633587786259542,-0.07633587786259542
0.30566436767578126,0.16435821533203127,-0.0556842041015625,0.07633587786259542,0.05343511450381679,-0.06870229007633588
0.192799072265625,0.23201751708984375,-0.08951385498046875,-0.26717557251908397,-0.015267175572519083,0.007633587786259542
-1.3430072021484376,2.27287353515625,2.2576052856445314,0.35877862595419846,-0.48854961832061067,1.2900763358778626
-4.382586364746094,3.9197488403320313,1.5881973266601563,0.5190839694656488,-1.4809160305343512,2.2748091603053435
-4.382586364746094,3.9197488403320313,1.5881973266601563,0.5190839694656488,-1.4809160305343512,2.2748091603053435
0.43349853515625003,-0.17004638671875,0.21555175781250002,0.08396946564885496,-1.4809160305343512,1.816793893129771
3.0955627441406253,-2.103725280761719,-0.8589138793945313,1.1603053435114503,0.42748091603053434,-0.8854961832061068
0.4520599365234375,-2.3141876220703126,-2.0908520507812502,1.4198473282442747,1.099236641221374,-2.2519083969465647
-2.752775573730469,-1.474134521484375,-0.38350250244140627,0.29770992366412213,1.3587786259541985,-3.610687022900763
-2.4516018676757816,2.6827212524414064,0.9253756713867188,0.2748091603053435,-0.06870229007633588,-1.8931297709923662
0.14819183349609374,1.89446044921875,1.3253439331054688,0.1450381679389313,0.366412213740458,-0.32061068702290074
-0.880169677734375,3.120411071777344,1.3915063476562501,0.47328244274809156,-0.35877862595419846,1.4580152671755724
-2.132764892578125,0.9077124023437501,-0.06436614990234375,-0.06870229007633588,-0.3511450381679389,2.3587786259541983
-2.155517578125,-0.26315277099609374,0.5864804077148438,-0.8625954198473282,-1.5190839694656488,2.900763358778626
0.3391946411132813,-1.5244299316406251,-0.3311114501953125,-0.366412213740458,-0.8091603053435115,1.984732824427481
2.04295166015625,-2.4563919067382813,-0.5547463989257813,0.007633587786259542,0.05343511450381679,-0.5572519083969465
1.69327880859375,1.0298583984375,0.41703277587890625,0.0916030534351145,0.3129770992366412,-0.6717557251908397
1.1981085205078126,-0.32482452392578126,-0.2544708251953125,0.6564885496183206,1.5725190839694656,-1.7404580152671756
0.28740234375,1.3945001220703126,3.2189062500000003,0.16030534351145037,2.7938931297709924,-1.6717557251908397
-3.13987060546875,2.4668701171875003,4.272415466308594,2.2061068702290076,2.4351145038167936,-1.7099236641221374
1.8232086181640625,0.8038284301757813,1.7142352294921877,0.7786259541984732,0.1450381679389313,0.3282442748091603
1.6851956176757814,0.3158432006835938,1.4681469726562502,-0.3893129770992366,-0.1984732824427481,0.2900763358778626
1.8028509521484375,0.45146118164062504,0.3553610229492188,-0.13740458015267176,-0.06870229007633588,0.16030534351145037
1.7591418457031252,0.15597564697265626,1.0702743530273438,-0.08396946564885496,-0.007633587786259542,-0.04580152671755725
1.6049624633789064,0.9756710815429688,0.6658154296875001,-0.34351145038167935,-0.06870229007633588,0.007633587786259542
1.469344482421875,0.7723937988281251,0.3906875610351563,-0.34351145038167935,-0.05343511450381679,0.05343511450381679
1.3747412109375001,0.5643264770507813,0.5673202514648438,0.46564885496183206,0.11450381679389313,0.061068702290076333
1.39869140625,0.40356079101562503,0.15058685302734376,0.15267175572519084,-0.015267175572519083,-0.04580152671755725
1.1379336547851564,0.1442999267578125,0.13112731933593752,0.33587786259541985,-0.06870229007633588,0.25190839694656486
1.2103829956054688,-0.20447479248046876,-0.10388397216796875,0.5954198473282443,0.06870229007633588,-0.030534351145038167
1.1684701538085938,-0.25147705078125,0.116158447265625,0.007633587786259542,-0.07633587786259542,-0.030534351145038167
0.8852590942382813,-0.3742218017578125,-0.11945159912109375,-0.42748091603053434,-0.061068702290076333,0.04580152671755725
0.7529342651367188,-0.22962249755859376,-0.07394622802734375,-0.16793893129770993,-0.007633587786259542,-0.13740458015267176
0.7517367553710937,0.2293231201171875,-0.164058837890625,-0.45038167938931295,-0.030534351145038167,-0.13740458015267176
0.58198974609375,0.6556365966796875,0.012873229980468751,-0.5419847328244275,-0.1297709923664122,0.07633587786259542
0.5783972167968751,0.6436614990234375,-0.0461041259765625,-0.2900763358778626,-0.04580152671755725,0.015267175572519083
0.59635986328125,0.5721102905273437,-0.10029144287109376,0.45038167938931295,0.11450381679389313,0.007633587786259542
0.5966592407226563,-0.034129028320312504,-0.14519805908203126,0.1450381679389313,-0.05343511450381679,-0.061068702290076333
0.43349853515625003,0.30835876464843753,-0.16076568603515626,-0.33587786259541985,-0.1297709923664122,-0.030534351145038167
0.3993695068359375,0.14639556884765625,-0.22123992919921875,0.06870229007633588,0.11450381679389313,-0.06870229007633588
0.3020718383789063,0.25806335449218754,-0.22632934570312502,-0.2213740458015267,-0.11450381679389313,0.08396946564885496
0.29309051513671874,0.124541015625,-0.10029144287109376,0.007633587786259542,-0.015267175572519083,-0.08396946564885496
0.092208251953125,0.7622149658203126,0.5589376831054688,-0.37404580152671757,0.007633587786259542,-0.04580152671755725
-3.943100280761719,2.166295166015625,0.3023712158203125,-0.4427480916030534,-1.1908396946564885,1.3969465648854962
-5.719007263183594,1.3882131958007813,-2.785108337402344,-0.4351145038167939,-2.7022900763358777,2.8167938931297707
-1.5627502441406251,0.239501953125,-0.7556286621093751,-0.7175572519083969,-2.312977099236641,2.618320610687023
3.197051696777344,-2.1621038818359377,-1.4265335083007813,-0.5954198473282443,-0.3282442748091603,0.3053435114503817
1.944755859375,-1.3549822998046877,-1.064586181640625,-0.061068702290076333,0.5038167938931297,-1.213740458015267
-4.918471984863282,-0.4343966674804688,-1.4205459594726564,-0.366412213740458,2.763358778625954,-3.450381679389313
-0.7164102172851563,2.791095886230469,2.1124072265625,-0.5725190839694656,0.10687022900763359,-0.015267175572519083
0.17184265136718752,1.8594332885742189,2.0887564086914066,-0.5877862595419847,-0.07633587786259542,-0.32061068702290074
-0.49487091064453126,1.8747015380859375,1.9570303344726563,-0.2748091603053435,-0.35877862595419846,0.45038167938931295
-2.9018655395507813,1.4965878295898438,-0.020357666015625,-0.37404580152671757,-2.847328244274809,1.7251908396946565
0.9116043090820313,-0.7960446166992188,-0.9714797973632813,-0.07633587786259542,-2.2900763358778624,1.3893129770992365
2.7234365844726565,-0.9589059448242188,-0.4520599365234375,0.0916030534351145,0.12213740458015267,0.16030534351145037
2.4902215576171876,0.5367837524414063,0.961600341796875,0.22900763358778625,0.4351145038167939,-0.29770992366412213
0.48020141601562505,0.4589456176757813,-0.4604425048828125,0.5343511450381679,2.045801526717557,-1.6717557251908397
-0.08951385498046875,0.9163943481445312,2.098935241699219,0.13740458015267176,2.351145038167939,-1.8778625954198473
1.2768447875976563,2.4641757202148438,3.2781829833984375,0.022900763358778626,-0.11450381679389313,0.25190839694656486
1.7777032470703127,1.0828482055664064,1.8531463623046875,0.4351145038167939,0.12213740458015267,-0.05343511450381679
1.853445739746094,0.0032931518554687503,1.3906082153320314,-0.09923664122137404,0.4198473282442748,-0.1297709923664122
1.5645465087890627,0.7744894409179688,1.6384927368164064,-0.29770992366412213,0.16030534351145037,-0.1297709923664122
1.6612454223632813,0.4149371337890625,0.4972659301757813,-0.2213740458015267,-0.20610687022900762,0.0916030534351145
1.7010626220703127,0.2900967407226563,0.5733078002929688,0.19083969465648853,0.15267175572519084,-0.030534351145038167
1.417552185058594,0.2915936279296875,0.4700225830078125,0.06870229007633588,-0.05343511450381679,0.030534351145038167
1.3558804321289064,0.076640625,0.28949798583984376,0.183206106870229,-0.05343511450381679,0.03816793893129771
1.0436297607421876,0.022752685546875002,0.15238311767578125,0.1450381679389313,0.09923664122137404,0.030534351145038167
1.2415182495117187,-0.07753875732421875,0.25806335449218754,0.04580152671755725,-0.061068702290076333,-0.015267175572519083
1.0181826782226564,-0.07544311523437501,0.13921051025390627,-0.061068702290076333,0.030534351145038167,0.030534351145038167
0.85502197265625,-0.2029779052734375,0.20537292480468752,-0.16030534351145037,0.015267175572519083,-0.05343511450381679
0.8208929443359375,0.14340179443359377,0.07933502197265625,-0.23664122137404578,0.03816793893129771,-0.12213740458015267
0.74006103515625,0.4263134765625,0.08771759033203125,-0.48854961832061067,-0.05343511450381679,0.0
0.6355783081054688,0.5780978393554688,0.00239501953125,-0.33587786259541985,-0.11450381679389313,0.030534351145038167
0.5655239868164063,0.5263055419921875,0.07634124755859376,0.19083969465648853,0.0916030534351145,0.03816793893129771
0.37661682128906254,0.3350033569335938,0.0209564208984375,0.3893129770992366,0.0916030534351145,0.07633587786259542
0.6167175292968751,-0.16196319580078125,-0.0640667724609375,0.29770992366412213,0.015267175572519083,-0.03816793893129771
0.5191204833984375,-0.19699035644531251,-0.1850152587890625,-0.03816793893129771,-0.007633587786259542,-0.007633587786259542
0.4724176025390625,-0.1323248291015625,-0.04819976806640625,-0.16793893129770993,-0.015267175572519083,-0.030534351145038167
0.4041595458984375,-0.15657440185546875,-0.20357666015625,-0.07633587786259542,0.007633587786259542,0.0
-3.061733093261719,0.32183074951171875,2.31119384765625,1.0076335877862594,-0.7022900763358778,0.9923664122137404
-5.830974426269531,1.6498690795898439,-3.0958621215820314,0.38167938931297707,-3.0229007633587783,1.83206106870229
-4.547842712402344,1.144519958496094,-1.213077392578125,-0.916030534351145,-2.6412213740458013,3.2748091603053435
2.4111859130859377,-2.4650738525390627,-1.08973388671875,-1.114503816793893,-1.0610687022900762,1.3206106870229006
2.9991632080078126,-2.8216323852539062,-1.0235714721679687,0.8015267175572519,0.7175572519083969,-1.0610687022900762
2.9991632080078126,-2.8216323852539062,-1.0235714721679687,0.8015267175572519,0.7175572519083969,-1.0610687022900762
-5.618117065429688,-0.680185546875,-1.948049011230469,0.2213740458015267,1.2595419847328244,-4.175572519083969
-1.8690133666992188,3.818559265136719,1.3501922607421877,-0.8931297709923663,0.16793893129770993,-0.282442748091603
-0.38320312500000003,2.3770568847656253,1.4950909423828125,-0.6946564885496183,0.1297709923664122,-0.5190839694656488
-2.2743704223632815,2.013013916015625,1.4450949096679688,-0.33587786259541985,-1.1603053435114503,1.2748091603053435
-3.1069390869140627,0.7086264038085938,-0.2089654541015625,-0.48854961832061067,-1.9694656488549618,2.114503816793893
-2.841690673828125,0.13651611328125002,0.5382806396484375,0.16793893129770993,-2.916030534351145,2.6030534351145036
0.3323089599609375,-2.6063800048828125,-1.7214202880859375,0.11450381679389313,-1.2061068702290076,1.381679389312977
2.235750732421875,-1.4124627685546876,-0.6487509155273438,-0.183206106870229,0.6717557251908397,-0.45038167938931295
1.167572021484375,0.7694000244140625,0.7801776123046875,-0.03816793893129771,1.0,-1.0610687022900762
-0.8460406494140625,1.0606942749023438,-0.8996292114257813,0.23664122137404578,2.2748091603053435,-2.6946564885496183
-1.7824932861328127,1.4468911743164063,2.4102877807617187,-0.7557251908396946,3.1068702290076335,-1.8473282442748091
-2.7916946411132812,3.34105224609375,4.336781616210938,0.5038167938931297,1.8778625954198473,-1.3740458015267174
1.76991943359375,1.4232403564453127,2.080074462890625,0.1984732824427481,0.38167938931297707,0.183206106870229
0.9903405761718751,0.9580078125,0.38320312500000003,0.16030534351145037,-0.007633587786259542,0.08396946564885496
0.9391470336914063,0.5691165161132813,0.259859619140625,0.1984732824427481,0.022900763358778626,0.03816793893129771
0.9044192504882813,0.6143225097656251,0.427510986328125,0.04580152671755725,0.0,0.05343511450381679
0.980760498046875,0.17333953857421877,0.10747650146484375,0.40458015267175573,0.007633587786259542,-0.03816793893129771
0.6948550415039063,0.15777191162109375,0.18920654296875,0.366412213740458,0.04580152671755725,-0.022900763358778626
0.7882608032226562,-0.3448828125,0.10807525634765626,0.24427480916030533,0.15267175572519084,-0.10687022900763359
0.6529421997070313,0.29907806396484377,-0.106578369140625,-0.549618320610687,-0.2213740458015267,0.022900763358778626
0.5203179931640626,0.43918670654296876,-0.1323248291015625,-0.5267175572519084,-0.06870229007633588,-0.007633587786259542
0.4685256958007813,0.6134243774414063,0.0461041259765625,0.15267175572519084,0.04580152671755725,0.022900763358778626
0.5586383056640625,0.47151947021484375,-0.06586303710937501,0.21374045801526717,0.04580152671755725,0.03816793893129771
0.3442840576171875,0.06346801757812501,-0.12244537353515626,0.2748091603053435,-0.030534351145038167,0.04580152671755725
0.47032196044921876,0.15657440185546875,-0.15178436279296875,-0.183206106870229,-0.030534351145038167,-0.09923664122137404
0.47032196044921876,0.15657440185546875,-0.15178436279296875,-0.183206106870229,-0.030534351145038167,-0.09923664122137404
0.34338592529296874,0.00269439697265625,-0.12304412841796876,-0.15267175572519084,-0.04580152671755725,0.022900763358778626
0.34338592529296874,0.00269439697265625,-0.12304412841796876,-0.15267175572519084,-0.04580152671755725,0.022900763358778626
0.24159759521484375,0.14669494628906252,-0.099393310546875,-0.04580152671755725,0.04580152671755725,0.06870229007633588
-4.008364562988281,-0.4071533203125,1.6845968627929688,0.8702290076335878,-2.2748091603053435,0.9007633587786259
-4.008364562988281,-0.4071533203125,1.6845968627929688,0.8702290076335878,-2.2748091603053435,0.9007633587786259
-4.008364562988281,-0.4071533203125,1.6845968627929688,0.8702290076335878,-2.2748091603053435,0.9007633587786259
3.7170703125,-2.207010498046875,-1.2651690673828127,-0.20610687022900762,-0.23664122137404578,0.6870229007633587
2.2902374267578125,-2.471959533691406,-1.5181430053710938,0.0,0.732824427480916,-1.549618320610687
2.2902374267578125,-2.471959533691406,-1.5181430053710938,0.0,0.732824427480916,-1.549618320610687
-4.155957641601563,1.4510824584960937,0.3838018798828125,-0.2595419847328244,0.549618320610687,-2.404580152671756
-0.228724365234375,1.7872833251953126,0.9864486694335938,-0.1984732824427481,-0.05343511450381679,-0.35877862595419846
-1.8294955444335939,2.74229736328125,1.5597564697265627,-0.42748091603053434,-0.4809160305343511,1.16793893129771
-1.8294955444335939,2.74229736328125,1.5597564697265627,-0.42748091603053434,-0.4809160305343511,1.16793893129771
-1.8294955444335939,2.74229736328125,1.5597564697265627,-0.42748091603053434,-0.4809160305343511,1.16793893129771
-1.8294955444335939,2.74229736328125,1.5597564697265627,-0.42748091603053434,-0.4809160305343511,1.16793893129771
2.3968157958984375,1.4456936645507814,0.6188131713867188,0.0916030534351145,0.21374045801526717,-0.10687022900763359
1.7501605224609376,-0.44337799072265627,0.26075775146484376,0.3282442748091603,0.35877862595419846,-0.7175572519083969
1.7501605224609376,-0.44337799072265627,0.26075775146484376,0.3282442748091603,0.35877862595419846,-0.7175572519083969
-1.423839111328125,3.5149905395507814,2.189347229003906,-0.7099236641221374,3.6564885496183206,-1.8091603053435115
-1.423839111328125,3.5149905395507814,2.189347229003906,-0.7099236641221374,3.6564885496183206,-1.8091603053435115
1.5169454956054689,1.1325448608398438,2.4791445922851563,0.4198473282442748,0.030534351145038167,0.09923664122137404
1.605561218261719,0.7262896728515625,0.9777667236328126,-0.12213740458015267,-0.2748091603053435,0.23664122137404578
1.4947915649414063,0.1778302001953125,0.8170010375976563,-0.35877862595419846,-0.04580152671755725,-0.015267175572519083
1.41545654296875,0.910107421875,0.6676116943359376,-0.16793893129770993,0.13740458015267176,-0.08396946564885496
1.3205538940429689,1.0208770751953125,0.8223898315429687,-0.564885496183206,-0.26717557251908397,-0.08396946564885496
1.1606863403320313,0.9454339599609376,0.7164102172851563,0.030534351145038167,0.04580152671755725,0.015267175572519083
1.1056008911132813,0.9469308471679688,0.5843847656250001,0.2595419847328244,0.07633587786259542,0.06870229007633588
0.9538165283203125,0.7948471069335938,0.3430865478515625,-0.030534351145038167,-0.04580152671755725,0.05343511450381679
0.9618997192382813,0.5670208740234375,0.209564208984375,0.12213740458015267,-0.03816793893129771,0.0
0.9610015869140626,0.45565246582031255,0.1754351806640625,0.19083969465648853,0.0916030534351145,0.0
0.6640191650390626,0.21884490966796877,0.085023193359375,-0.09923664122137404,-0.0916030534351145,-0.007633587786259542
0.5146298217773437,0.08412506103515625,0.10867401123046876,-0.05343511450381679,0.0916030534351145,-0.10687022900763359
0.6104306030273438,0.5307962036132813,0.02963836669921875,-0.5343511450381679,-0.06870229007633588,-0.022900763358778626
0.5394781494140626,0.8289761352539063,0.23201751708984375,-0.48854961832061067,-0.06870229007633588,-0.007633587786259542
0.46493316650390626,0.8065228271484376,0.1898052978515625,0.04580152671755725,0.030534351145038167,0.061068702290076333
0.49576904296875,0.7149133300781251,0.15238311767578125,0.4961832061068702,0.16030534351145037,0.0916030534351145
0.377215576171875,0.41703277587890625,-0.07843688964843751,0.1450381679389313,-0.07633587786259542,0.022900763358778626
0.48020141601562505,0.1802252197265625,-0.07933502197265625,0.13740458015267176,0.022900763358778626,-0.0916030534351145
0.45295806884765627,0.028141479492187503,-0.140108642578125,0.13740458015267176,0.0916030534351145,-0.015267175572519083
0.3637435913085938,0.31793884277343754,-0.144898681640625,-0.33587786259541985,-0.0916030534351145,0.022900763358778626
0.3523672485351563,0.3730242919921875,-0.18950592041015626,-0.23664122137404578,-0.030534351145038167,-0.007633587786259542
0.18202148437500001,0.3757186889648438,0.2682421875,-0.38167938931297707,0.29770992366412213,-0.03816793893129771
-3.6080969238281253,-0.5730084228515625,2.4866290283203125,1.1374045801526718,-1.3358778625954197,0.5801526717557252
-6.174060974121094,1.6016693115234375,0.128133544921875,0.5343511450381679,-3.297709923664122,1.8931297709923662
-0.04700225830078125,-0.7331753540039063,-0.20686981201171875,0.732824427480916,-2.4580152671755724,2.381679389312977
3.203338623046875,-2.7476861572265627,-0.6370751953125,0.6564885496183206,0.4809160305343511,-1.2748091603053435
1.3989907836914064,-1.977986755371094,-2.266586608886719,-0.40458015267175573,1.8702290076335877,-1.9312977099236641
-6.030060424804688,1.708846435546875,-3.0084439086914063,-0.15267175572519084,2.549618320610687,-4.374045801526718
-1.6423846435546876,2.175575866699219,2.0564236450195312,0.09923664122137404,0.5725190839694656,-1.0687022900763359
-0.15687377929687502,0.9166937255859375,1.9743942260742189,0.05343511450381679,-0.38167938931297707,0.22900763358778625
-0.8493338012695313,1.8402731323242187,1.9824774169921875,-0.1297709923664122,-0.46564885496183206,0.8702290076335878
-4.120930480957031,2.3408322143554687,0.5828878784179687,-0.41221374045801523,-2.6412213740458013,2.3664122137404577
-1.9067349243164065,0.6230044555664063,0.07454498291015625,-0.8396946564885496,-2.1755725190839694,2.5725190839694654
2.409090270996094,-2.0950433349609376,-0.40505767822265626,-0.06870229007633588,-0.007633587786259542,0.282442748091603
2.750679931640625,0.058677978515625,0.731678466796875,-0.022900763358778626,0.6641221374045801,-0.3129770992366412
-0.7367678833007812,0.1389111328125,-0.5523513793945313,1.1374045801526718,1.6030534351145038,-3.236641221374046
-0.40475830078125,2.5944049072265627,0.49067962646484375,-3.0534351145038165,1.4351145038167938,-2.0076335877862594
-2.2974224853515626,2.2827529907226562,3.024610290527344,-0.030534351145038167,2.4122137404580153,-1.7633587786259541
2.2378463745117188,0.077838134765625,1.4723382568359376,0.15267175572519084,0.5038167938931297,0.06870229007633588
1.819915466308594,0.15238311767578125,0.8553213500976563,-0.2748091603053435,0.022900763358778626,0.08396946564885496
1.56394775390625,0.15777191162109375,0.8385562133789063,0.1297709923664122,0.0,-0.03816793893129771
1.4992822265625,0.041912841796875,0.810714111328125,0.1984732824427481,0.04580152671755725,-0.03816793893129771
1.32444580078125,0.011376342773437501,0.4930746459960938,0.0,0.10687022900763359,-0.06870229007633588
1.1059002685546875,0.4014651489257813,0.7723937988281251,-0.38167938931297707,-0.183206106870229,-0.35877862595419846
1.13763427734375,0.305364990234375,0.2682421875,-0.40458015267175573,-0.03816793893129771,0.015267175572519083
1.0319540405273437,0.18890716552734377,0.3457809448242188,0.3053435114503817,0.0,-0.1297709923664122
0.889749755859375,0.2281256103515625,0.5487588500976562,0.08396946564885496,0.07633587786259542,0.05343511450381679
0.8385562133789063,0.00239501953125,0.20836669921875,-0.16793893129770993,-0.15267175572519084,0.10687022900763359
0.8373587036132812,0.0975970458984375,0.045505371093750004,0.12213740458015267,0.0916030534351145,0.08396946564885496
0.9131011962890625,0.08801696777343751,0.08532257080078126,0.24427480916030533,0.10687022900763359,-0.022900763358778626
0.6978488159179688,-0.09969268798828125,0.24698638916015625,0.007633587786259542,-0.022900763358778626,0.0
0.6816824340820313,-0.17603393554687502,-0.067060546875,-0.25190839694656486,0.03816793893129771,-0.05343511450381679
0.602347412109375,0.3155438232421875,0.2245330810546875,-0.2213740458015267,0.022900763358778626,-0.15267175572519084
0.4517605590820313,0.6954537963867188,-0.006286926269531251,-0.8167938931297709,-0.12213740458015267,0.04580152671755725
0.44846740722656253,1.0124945068359374,0.1993853759765625,-0.47328244274809156,-0.1297709923664122,0.04580152671755725
0.3933819580078125,1.1421249389648438,0.5607339477539063,0.007633587786259542,0.04580152671755725,0.030534351145038167
0.3074606323242188,1.0202783203125,0.3921844482421875,0.38167938931297707,0.09923664122137404,-0.007633587786259542
0.34099090576171875,0.49247589111328127,0.09190887451171875,0.6183206106870229,0.030534351145038167,-0.05343511450381679
0.43260040283203127,-0.07035369873046875,-0.02604583740234375,0.5725190839694656,0.19083969465648853,-0.015267175572519083
0.2966830444335938,0.0047900390625,-0.18591339111328126,-0.1297709923664122,-0.1297709923664122,0.07633587786259542
0.38619689941406254,-0.1676513671875,-0.24279510498046877,0.061068702290076333,0.08396946564885496,-0.007633587786259542
0.32332763671875003,-0.24189697265625001,-0.2442919921875,0.32061068702290074,0.10687022900763359,-0.061068702290076333
0.35625915527343754,-0.2667453002929688,-0.16196319580078125,-0.03816793893129771,0.015267175572519083,0.0
-2.5042922973632815,-0.8939410400390625,2.4602838134765626,0.5419847328244275,1.1755725190839694,0.38167938931297707
-6.077362060546875,3.845802612304688,-4.571194152832032,-0.7709923664122137,-2.8625954198473282,2.3206106870229006
-3.2647109985351563,1.3157638549804689,-1.2798385620117188,-1.1450381679389312,-3.6717557251908395,2.33587786259542
2.8231292724609376,-2.575544128417969,-1.392703857421875,-0.06870229007633588,-0.648854961832061,1.213740458015267
0.5382806396484375,-2.648592224121094,-1.9812799072265626,1.1221374045801527,0.9694656488549618,-2.8625954198473282
-5.980663146972657,-0.21106109619140626,-1.9684066772460938,0.7404580152671756,1.816793893129771,-3.297709923664122
-1.926493835449219,2.8806097412109377,1.6073574829101562,-1.0610687022900762,-0.1297709923664122,-0.03816793893129771
-0.5313949584960938,1.773212585449219,1.5325131225585937,-0.7175572519083969,0.015267175572519083,-0.37404580152671757
-1.0678793334960939,1.9109262084960938,1.507664794921875,0.23664122137404578,0.03816793893129771,0.9541984732824427
-2.6536816406250003,2.262994079589844,0.39847137451171877,-0.8091603053435115,-1.5267175572519083,1.6412213740458015
-2.3138882446289064,0.6571334838867188,0.197589111328125,-0.8396946564885496,-2.3053435114503817,2.648854961832061
1.8552420043945312,-2.7692413330078125,-0.530496826171875,0.06870229007633588,-0.10687022900763359,1.0610687022900762
2.930007019042969,-1.052611083984375,0.2628533935546875,-0.11450381679389313,0.5190839694656488,-0.3893129770992366
2.0881576538085938,0.14699432373046875,0.9478289794921876,-0.03816793893129771,0.5801526717557252,-1.3893129770992365
0.06496490478515625,0.6274951171875001,-0.23441253662109376,0.2900763358778626,1.7404580152671756,-2.4885496183206106
-0.6143225097656251,1.6798068237304689,2.484533386230469,0.2748091603053435,2.145038167938931,-2.297709923664122
-0.173638916015625,4.400848388671875,3.476370849609375,0.7404580152671756,0.5877862595419847,-0.6106870229007634
2.0151095581054688,0.46613067626953125,2.1345611572265626,0.40458015267175573,0.3893129770992366,-0.1297709923664122
2.0519329833984377,0.13142669677734375,1.1205697631835938,-0.015267175572519083,0.07633587786259542,0.030534351145038167
1.811532897949219,0.32901580810546877,0.8795709228515626,-0.13740458015267176,-0.030534351145038167,-0.061068702290076333
1.8271005249023438,0.3155438232421875,0.6083349609375001,-0.061068702290076333,0.13740458015267176,-0.08396946564885496
1.6232244873046875,0.417930908203125,0.49636779785156254,-0.25190839694656486,-0.05343511450381679,-0.06870229007633588
1.4325210571289064,0.5906716918945313,0.662222900390625,-0.3053435114503817,0.030534351145038167,-0.15267175572519084
1.4304254150390625,0.7502398681640625,0.336500244140625,-0.12213740458015267,-0.16030534351145037,0.06870229007633588
1.423839111328125,0.3811074829101563,0.09131011962890626,-0.1297709923664122,0.030534351145038167,0.007633587786259542
1.086141357421875,0.42810974121093753,0.2939886474609375,0.21374045801526717,-0.12213740458015267,0.11450381679389313
0.9882449340820313,0.41284149169921874,-0.0143701171875,0.05343511450381679,-0.03816793893129771,0.022900763358778626
0.7146139526367188,-0.17633331298828125,-0.0221539306640625,0.47328244274809156,-0.061068702290076333,0.12213740458015267
0.6553372192382813,0.13621673583984376,0.09969268798828125,0.08396946564885496,0.06870229007633588,-0.06870229007633588
0.680185546875,-0.22153930664062502,0.17094451904296876,-0.04580152671755725,-0.06870229007633588,0.03816793893129771
0.602347412109375,-0.2137554931640625,0.13142669677734375,-0.1450381679389313,0.007633587786259542,-0.11450381679389313
0.602347412109375,-0.2137554931640625,0.13142669677734375,-0.1450381679389313,0.007633587786259542,-0.11450381679389313
0.5733078002929688,0.3610491943359375,-0.0544866943359375,-0.07633587786259542,-0.03816793893129771,0.03816793893129771
0.3718267822265625,0.1826202392578125,-0.06945556640625,0.3969465648854962,0.06870229007633588,0.030534351145038167
0.350870361328125,-0.15837066650390627,0.052989807128906254,0.38167938931297707,-0.022900763358778626,-0.11450381679389313
0.5128335571289063,-0.30566436767578126,-0.1778302001953125,-0.06870229007633588,-0.03816793893129771,-0.04580152671755725
0.31853759765625,-0.17184265136718752,-0.0401165771484375,-0.06870229007633588,0.05343511450381679,0.030534351145038167
0.42391845703125003,-0.25357269287109374,-0.28949798583984376,-0.03816793893129771,-0.007633587786259542,0.03816793893129771
0.239501953125,-0.03562591552734375,-0.12005035400390626,-0.15267175572519084,-0.030534351145038167,0.03816793893129771
-0.47062133789062505,1.0924282836914063,1.6196319580078127,-0.3053435114503817,0.2213740458015267,0.6412213740458015
-5.123545532226562,3.2260913085937504,1.483714599609375,0.030534351145038167,-1.7633587786259541,2.213740458015267
-5.679190063476563,2.369871826171875,-1.6396902465820313,0.4580152671755725,-0.6564885496183206,3.16793893129771
-1.7860858154296877,0.17004638671875,-0.0449066162109375,-0.7557251908396946,-0.3511450381679389,2.618320610687023
1.9034417724609376,-2.971021728515625,0.4451742553710938,-1.2213740458015268,-1.0763358778625953,1.2290076335877862
1.308878173828125,-2.5240512084960938,-1.01309326171875,1.1603053435114503,-0.11450381679389313,-1.7175572519083968
-3.8553826904296877,-3.798201599121094,-0.7274871826171876,2.564885496183206,1.045801526717557,-4.870229007633587
-3.8553826904296877,-3.798201599121094,-0.7274871826171876,2.564885496183206,1.045801526717557,-4.870229007633587
0.3948788452148438,0.9265731811523438,0.4454736328125,0.34351145038167935,0.7099236641221374,-0.32061068702290074
-1.033450927734375,3.107537841796875,0.36134857177734375,-0.3969465648854962,-0.1984732824427481,1.366412213740458
-2.8695327758789064,1.6708255004882813,-0.33410522460937503,-0.5419847328244275,-0.16793893129770993,2.66412213740458
-1.8591339111328127,-0.429906005859375,0.2442919921875,-1.0381679389312977,-1.8931297709923662,2.3893129770992365
-1.8591339111328127,-0.429906005859375,0.2442919921875,-1.0381679389312977,-1.8931297709923662,2.3893129770992365
-1.8591339111328127,-0.429906005859375,0.2442919921875,-1.0381679389312977,-1.8931297709923662,2.3893129770992365
0.3131488037109375,0.4781057739257813,-0.5487588500976562,0.25190839694656486,0.6412213740458015,-2.1908396946564883
0.3131488037109375,0.4781057739257813,-0.5487588500976562,0.25190839694656486,0.6412213740458015,-2.1908396946564883
-2.19144287109375,0.7394622802734375,4.071533203125,0.732824427480916,3.5572519083969465,-2.480916030534351
1.5837066650390625,0.8927435302734376,2.1357586669921877,-0.7709923664122137,-0.37404580152671757,0.03816793893129771
1.5837066650390625,0.8927435302734376,2.1357586669921877,-0.7709923664122137,-0.37404580152671757,0.03816793893129771
1.8028509521484375,0.5589376831054688,0.9427395629882813,0.09923664122137404,-0.04580152671755725,0.19083969465648853
1.8028509521484375,0.5589376831054688,0.9427395629882813,0.09923664122137404,-0.04580152671755725,0.19083969465648853
1.593885498046875,0.6679110717773438,0.5373825073242188,-0.007633587786259542,0.0,0.022900763358778626
1.2475057983398439,0.9199868774414063,0.7679031372070313,-0.46564885496183206,-0.183206106870229,-0.07633587786259542
1.2475057983398439,0.9199868774414063,0.7679031372070313,-0.46564885496183206,-0.183206106870229,-0.07633587786259542
1.251397705078125,0.6251000976562501,0.4017645263671875,0.4961832061068702,0.10687022900763359,0.061068702290076333
1.1624826049804688,0.36703674316406254,0.12603790283203126,-0.04580152671755725,-0.0916030534351145,0.015267175572519083
1.1624826049804688,0.36703674316406254,0.12603790283203126,-0.04580152671755725,-0.0916030534351145,0.015267175572519083
0.8613088989257813,0.38050872802734376,-0.0868194580078125,0.1297709923664122,0.007633587786259542,0.04580152671755725
0.8613088989257813,0.38050872802734376,-0.0868194580078125,0.1297709923664122,0.007633587786259542,0.04580152671755725
0.6738986206054688,0.025147705078125002,0.0032931518554687503,-0.12213740458015267,-0.06870229007633588,0.03816793893129771
0.6738986206054688,0.025147705078125002,0.0032931518554687503,-0.12213740458015267,-0.06870229007633588,0.03816793893129771
0.5789959716796875,0.45235931396484375,-0.10268646240234376,-0.6335877862595419,-0.1450381679389313,-0.05343511450381679
0.4577481079101563,0.6370751953125,0.07903564453125,-0.25190839694656486,-0.04580152671755725,0.030534351145038167
0.4577481079101563,0.6370751953125,0.07903564453125,-0.25190839694656486,-0.04580152671755725,0.030534351145038167
0.4098477172851563,0.43828857421875,-0.03622467041015625,0.4809160305343511,0.1450381679389313,0.04580152671755725
0.3415896606445313,0.1945953369140625,-0.15777191162109375,-0.03816793893129771,-0.06870229007633588,-0.030534351145038167
0.49337402343750003,0.0089813232421875,-0.192799072265625,0.16030534351145037,0.030534351145038167,-0.08396946564885496
0.427510986328125,0.04221221923828125,-0.05987548828125,0.29770992366412213,0.16793893129770993,0.03816793893129771
0.31823822021484377,0.0413140869140625,-0.2844085693359375,-0.2900763358778626,-0.16793893129770993,0.022900763358778626
0.30805938720703124,-0.034129028320312504,-0.21644989013671875,0.04580152671755725,0.03816793893129771,-0.022900763358778626
-0.02185455322265625,0.42840911865234377,0.5053491210937501,-0.20610687022900762,0.04580152671755725,0.10687022900763359
-5.651347961425781,1.0654843139648438,2.561473388671875,1.2748091603053435,-2.8091603053435112,1.7251908396946565
-6.366860046386719,1.5965798950195313,-0.5083428955078125,-0.4961832061068702,-2.396946564885496,3.015267175572519
-0.14669494628906252,-0.41044647216796876,0.5637277221679687,0.5267175572519084,-1.9541984732824427,2.183206106870229
3.414998474121094,-3.011437683105469,0.0077838134765625,0.06870229007633588,-0.13740458015267176,-0.21374045801526717
-1.6639398193359376,-2.5836273193359376,-2.1579125976562503,0.7480916030534351,2.763358778625954,-3.381679389312977
-5.897136840820313,1.6552578735351564,-0.5427713012695313,0.32061068702290074,0.6412213740458015,-3.8244274809160306
0.03682342529296875,1.7378860473632813,2.078577575683594,-0.007633587786259542,0.2595419847328244,-0.5419847328244275
0.28530670166015626,1.9719992065429688,1.6304095458984376,0.06870229007633588,-0.030534351145038167,0.4427480916030534
-1.2385244750976563,2.751578063964844,1.342408447265625,-0.3511450381679389,-0.47328244274809156,1.5877862595419847
-2.118394775390625,1.5923886108398437,0.4981640625,-0.7175572519083969,-0.9007633587786259,2.3587786259541983
0.9328601074218751,-1.5774197387695312,-0.49636779785156254,-0.5572519083969465,-1.6564885496183206,1.5190839694656488
3.0012588500976562,-0.8388555908203126,0.0149688720703125,0.030534351145038167,0.366412213740458,-0.38167938931297707
0.011376342773437501,0.07933502197265625,-0.8607101440429688,0.8167938931297709,1.83206106870229,-1.7633587786259541
-1.1274554443359375,2.4935147094726564,2.041754150390625,-0.8702290076335878,2.519083969465649,-0.564885496183206
-2.334844665527344,1.8043478393554688,4.465813293457032,0.6335877862595419,1.8091603053435115,-1.6412213740458015
2.5731491088867187,-0.33829650878906253,2.1953347778320316,0.4809160305343511,0.08396946564885496,-0.282442748091603
1.8540444946289063,0.5646258544921875,1.4858102416992187,-0.16793893129770993,-0.07633587786259542,0.1297709923664122
1.6334033203125,0.6981481933593751,1.4196478271484376,0.10687022900763359,0.007633587786259542,-0.030534351145038167
1.5286212158203125,0.3918850708007813,1.1750564575195312,0.0,-0.007633587786259542,0.0
1.5295193481445313,0.15777191162109375,1.0388397216796876,-0.015267175572519083,0.12213740458015267,0.030534351145038167
1.1085946655273438,0.5763015747070312,1.0654843139648438,-0.3053435114503817,-0.007633587786259542,-0.05343511450381679
1.3271401977539063,0.13651611328125002,0.6475534057617188,0.16030534351145037,0.183206106870229,-0.16030534351145037
1.0490185546875002,0.34518218994140626,0.6894662475585938,0.04580152671755725,0.0,0.0
0.918489990234375,0.03742218017578125,0.5014572143554688,0.015267175572519083,-0.007633587786259542,-0.007633587786259542
0.8619076538085938,0.09909393310546875,0.47571075439453125,0.10687022900763359,0.04580152671755725,-0.030534351145038167
0.6379733276367188,0.3619473266601563,0.25956024169921876,0.10687022900763359,-0.1450381679389313,0.282442748091603
0.8445437622070313,-0.1676513671875,0.6888674926757813,0.26717557251908397,0.0916030534351145,-0.1297709923664122
0.609532470703125,-0.050295410156250005,0.4589456176757813,0.015267175572519083,-0.007633587786259542,0.030534351145038167
0.4900808715820313,-0.060174865722656255,0.37811370849609377,0.015267175572519083,0.08396946564885496,-0.03816793893129771
0.6026467895507813,0.014070739746093752,0.3541635131835938,-0.15267175572519084,0.05343511450381679,-0.07633587786259542
0.58198974609375,0.1742376708984375,0.30416748046875003,-0.2213740458015267,0.030534351145038167,-0.007633587786259542
0.45655059814453125,0.2568658447265625,0.17962646484375,-0.25190839694656486,-0.06870229007633588,0.03816793893129771
0.4245172119140625,0.2625540161132813,0.12963043212890626,0.05343511450381679,0.007633587786259542,0.030534351145038167
0.316142578125,0.17244140625,0.1502874755859375,0.21374045801526717,0.06870229007633588,0.015267175572519083
0.35206787109375004,-0.1197509765625,0.22483245849609376,0.16030534351145037,0.007633587786259542,-0.13740458015267176
0.5295986938476562,-0.21674926757812502,0.05748046875,0.4427480916030534,0.33587786259541985,-0.15267175572519084
0.47571075439453125,-0.5140310668945313,0.00029937744140625,-0.022900763358778626,-0.10687022900763359,0.08396946564885496
0.5260061645507813,-0.6388714599609375,-0.2721340942382813,-0.29770992366412213,-0.007633587786259542,-0.030534351145038167
0.4137396240234375,-0.22004241943359376,-0.11945159912109375,-0.11450381679389313,0.007633587786259542,-0.022900763358778626
-4.152664489746094,0.73527099609375,2.4273522949218753,1.1068702290076335,-1.6717557251908397,1.5267175572519083
-6.065386962890625,2.0264859008789062,-0.05718109130859375,1.7786259541984732,-1.4961832061068703,2.8702290076335877
-3.750001831054688,0.47900390625,-0.7661068725585938,-1.9083969465648853,-0.15267175572519084,3.4045801526717554
3.1455587768554687,-3.006947021484375,0.39038818359375,0.37404580152671757,-0.282442748091603,1.2748091603053435
2.436632995605469,-2.7599606323242187,0.9026229858398438,0.6183206106870229,0.16793893129770993,-1.3053435114503815
-5.164859619140625,-1.6881893920898439,-2.1597088623046874,3.5267175572519083,-0.24427480916030533,-3.5343511450381677
0.032931518554687504,2.480940856933594,0.032332763671875,1.2519083969465647,0.183206106870229,0.19083969465648853
0.22662872314453125,2.20341796875,1.1436218261718751,0.32061068702290074,-0.29770992366412213,0.35877862595419846
-2.578837280273438,2.5462051391601563,-1.4133609008789063,-0.6106870229007634,0.7175572519083969,2.32824427480916
-0.8214916992187501,-1.1256591796875,-0.5505551147460938,-0.8167938931297709,-0.6259541984732824,2.541984732824427
2.695295104980469,-2.848276977539063,-0.11286529541015626,0.07633587786259542,-0.3129770992366412,0.6259541984732824
2.058519287109375,0.39008880615234376,1.1136840820312501,0.030534351145038167,0.030534351145038167,-0.4198473282442748
0.8666976928710938,0.16166381835937502,0.12124786376953126,0.32061068702290074,0.45038167938931295,-1.7251908396946565
-0.444276123046875,2.22497314453125,0.3499722290039063,-0.6335877862595419,2.5572519083969465,-2.0
-2.252216491699219,3.68593505859375,3.975732421875,0.4198473282442748,2.7251908396946565,-2.213740458015267
2.70876708984375,0.09969268798828125,2.3584954833984377,0.05343511450381679,0.38167938931297707,-0.16793893129770993
2.0588186645507816,0.32781829833984377,1.4711407470703126,-0.0916030534351145,-0.007633587786259542,0.030534351145038167
1.8977536010742189,0.710123291015625,1.1430230712890626,0.0,0.061068702290076333,0.11450381679389313
1.7681231689453125,0.21884490966796877,0.97716796875,-0.09923664122137404,-0.022900763358778626,-0.03816793893129771
1.6878900146484377,0.30985565185546876,1.0074050903320313,-0.183206106870229,0.10687022900763359,-0.030534351145038167
1.4708413696289062,0.47840515136718753,0.5553451538085937,-0.26717557251908397,0.03816793893129771,-0.1450381679389313
1.5920892333984376,0.21465362548828126,0.42870849609375,0.366412213740458,0.282442748091603,-0.1984732824427481
1.34360595703125,0.33769775390625,0.6523434448242188,0.21374045801526717,0.022900763358778626,0.1297709923664122
1.2615765380859376,0.22752685546875,0.17244140625,-0.22900763358778625,-0.06870229007633588,0.07633587786259542
1.289718017578125,0.044307861328125,-0.1335223388671875,0.19083969465648853,-0.05343511450381679,0.022900763358778626
1.2307406616210939,-0.23022125244140626,0.23261627197265627,0.5038167938931297,0.05343511450381679,-0.007633587786259542
0.9367520141601563,-0.2377056884765625,0.223934326171875,0.022900763358778626,-0.03816793893129771,0.007633587786259542
0.963995361328125,-0.3933819580078125,-0.0892144775390625,-0.5572519083969465,-0.015267175572519083,-0.1450381679389313
0.7882608032226562,0.33290771484375004,0.00449066162109375,-0.42748091603053434,-0.015267175572519083,-0.16030534351145037
0.7717950439453125,0.43649230957031254,-0.012274475097656251,-0.648854961832061,-0.11450381679389313,-0.03816793893129771
0.611927490234375,0.699345703125,0.026943969726562503,-0.19083969465648853,-0.06870229007633588,0.030534351145038167
0.5487588500976562,0.6939569091796876,-0.0520916748046875,0.22900763358778625,0.04580152671755725,0.04580152671755725
0.5553451538085937,0.44726989746093754,0.00029937744140625,0.183206106870229,0.022900763358778626,0.03816793893129771
0.4673281860351563,-0.19669097900390625,-0.1143621826171875,0.549618320610687,0.08396946564885496,-0.061068702290076333
0.5418731689453126,-0.07873626708984376,-0.24938140869140626,-0.022900763358778626,-0.03816793893129771,0.0
0.4086502075195313,-0.202379150390625,-0.06975494384765625,-0.1450381679389313,-0.09923664122137404,0.022900763358778626
0.41583526611328125,-0.2682421875,-0.30386810302734374,-0.2595419847328244,-0.030534351145038167,0.007633587786259542
0.3296145629882813,-0.06197113037109375,-0.09310638427734376,0.061068702290076333,0.022900763358778626,0.0916030534351145
-0.28770172119140625,0.13741424560546875,1.2424163818359375,-0.08396946564885496,-0.19083969465648853,0.1297709923664122
-5.677693176269532,2.0941452026367187,1.7744100952148438,0.7709923664122137,-2.091603053435114,2.183206106870229
-6.129753112792969,1.6774118041992188,-1.3744418334960937,-0.8015267175572519,-1.7557251908396947,3.2213740458015265
-0.07274871826171875,-1.1648776245117187,-0.1215472412109375,0.04580152671755725,-1.3740458015267174,2.7709923664122136
3.5209780883789064,-1.69806884765625,1.0921289062500001,1.2748091603053435,-0.19083969465648853,-0.5267175572519084
1.2528945922851562,-2.432142333984375,-1.5229330444335938,1.1221374045801527,0.5343511450381679,-2.564885496183206
-0.8906478881835938,3.6074981689453125,0.45984375,-0.6412213740458015,-0.16793893129770993,-0.3053435114503817
-0.12424163818359375,3.107238464355469,2.385140075683594,-0.26717557251908397,-0.3511450381679389,-0.29770992366412213
-1.1960128784179689,3.440146179199219,1.5666421508789063,-0.6106870229007634,-0.47328244274809156,1.3511450381679388
-3.60929443359375,1.8911672973632814,-0.5331912231445313,-1.2366412213740459,-0.9694656488549618,2.3740458015267176
-2.6276358032226566,-0.789158935546875,-1.2717553710937501,-0.8854961832061068,-1.7862595419847327,2.450381679389313
3.338357849121094,-2.025887145996094,-1.0002200317382812,0.549618320610687,0.42748091603053434,-0.35877862595419846
2.149530029296875,0.6164181518554688,1.101409606933594,-0.12213740458015267,0.32061068702290074,-0.5267175572519084
-0.5894741821289062,-0.1754351806640625,-1.6603472900390626,1.5114503816793892,1.4809160305343512,-2.610687022900763
-2.206711120605469,2.788102111816406,2.7105633544921877,0.5725190839694656,2.519083969465649,-2.916030534351145
-0.5547463989257813,5.089715881347656,3.0419741821289064,0.37404580152671757,-0.366412213740458,0.3511450381679389
2.030677185058594,0.9669891357421876,2.557880859375,0.6946564885496183,0.04580152671755725,-0.3053435114503817
2.0713925170898437,0.07334747314453126,1.550775146484375,-0.030534351145038167,0.015267175572519083,0.0916030534351145
1.7648300170898439,0.24339385986328127,1.025068359375,-0.10687022900763359,0.022900763358778626,0.022900763358778626
1.6112493896484377,0.4245172119140625,0.7921527099609376,0.32061068702290074,0.022900763358778626,-0.21374045801526717
1.490600280761719,0.19728973388671875,0.719703369140625,-0.282442748091603,0.061068702290076333,-0.015267175572519083
1.6031661987304688,0.3224295043945313,0.4700225830078125,-0.04580152671755725,0.23664122137404578,-0.1450381679389313
1.3933026123046877,0.39996826171875,0.310155029296875,-0.21374045801526717,0.09923664122137404,-0.1297709923664122
1.4558724975585937,0.22692810058593751,0.147293701171875,0.16030534351145037,0.022900763358778626,0.04580152671755725
1.2708572387695314,0.26105712890625,0.1790277099609375,0.09923664122137404,0.015267175572519083,0.06870229007633588
1.0810519409179689,-0.0173638916015625,0.06436614990234375,0.015267175572519083,-0.05343511450381679,0.03816793893129771
1.2014016723632812,0.1095721435546875,-0.28500732421875,0.20610687022900762,-0.022900763358778626,0.04580152671755725
1.2014016723632812,0.1095721435546875,-0.28500732421875,0.20610687022900762,-0.022900763358778626,0.04580152671755725
0.7708969116210938,-0.18082397460937502,-0.02784210205078125,-0.2213740458015267,-0.03816793893129771,-0.015267175572519083
0.6972500610351563,-0.09729766845703125,-0.03203338623046875,-0.1297709923664122,0.06870229007633588,-0.183206106870229
0.6972500610351563,-0.09729766845703125,-0.03203338623046875,-0.1297709923664122,0.06870229007633588,-0.183206106870229
0.6008505249023438,0.3864962768554688,-0.060174865722656255,-0.1297709923664122,0.0,0.022900763358778626
0.5454656982421875,0.5574407958984375,-0.11076965332031251,0.061068702290076333,-0.007633587786259542,0.030534351145038167
0.5355862426757813,0.44726989746093754,-0.1484912109375,0.19083969465648853,0.06870229007633588,0.12213740458015267
0.5355862426757813,0.44726989746093754,-0.1484912109375,0.19083969465648853,0.06870229007633588,0.12213740458015267
0.45744873046875,-0.08053253173828126,-0.20387603759765627,0.29770992366412213,-0.11450381679389313,-0.183206106870229
0.45744873046875,-0.08053253173828126,-0.20387603759765627,0.29770992366412213,-0.11450381679389313,-0.183206106870229
0.34398468017578127,-0.28830047607421877,-0.14519805908203126,-0.3893129770992366,-0.2213740458015267,0.09923664122137404
0.34398468017578127,-0.28830047607421877,-0.14519805908203126,-0.3893129770992366,-0.2213740458015267,0.09923664122137404
0.23141876220703125,0.01047821044921875,-0.08861572265625,0.007633587786259542,0.030534351145038167,0.04580152671755725
0.23141876220703125,0.01047821044921875,-0.08861572265625,0.007633587786259542,0.030534351145038167,0.04580152671755725
-5.814508666992188,0.5739065551757813,2.783910827636719,1.5725190839694656,-2.0076335877862594,2.381679389312977
-5.814508666992188,0.5739065551757813,2.783910827636719,1.5725190839694656,-2.0076335877862594,2.381679389312977
-0.705333251953125,-1.0852432250976562,0.2655477905273438,-0.20610687022900762,-1.7938931297709924,2.0763358778625953
2.2531146240234374,-2.655477905273438,-1.3298345947265626,1.2671755725190839,0.26717557251908397,-1.648854961832061
2.2531146240234374,-2.655477905273438,-1.3298345947265626,1.2671755725190839,0.26717557251908397,-1.648854961832061
-5.027744750976563,1.3097763061523438,-1.2546908569335937,-0.9465648854961831,0.648854961832061,-3.1068702290076335
-5.027744750976563,1.3097763061523438,-1.2546908569335937,-0.9465648854961831,0.648854961832061,-3.1068702290076335
-0.02065704345703125,2.2614971923828127,2.1639001464843752,-0.21374045801526717,-0.21374045801526717,0.16030534351145037
-0.02065704345703125,2.2614971923828127,2.1639001464843752,-0.21374045801526717,-0.21374045801526717,0.16030534351145037
-2.9228219604492187,1.6268170166015625,1.3962963867187501,-0.15267175572519084,-1.580152671755725,2.114503816793893
-2.9228219604492187,1.6268170166015625,1.3962963867187501,-0.15267175572519084,-1.580152671755725,2.114503816793893
1.986369323730469,-2.0579205322265626,-1.2735516357421877,0.4580152671755725,-0.5572519083969465,0.7709923664122137
1.986369323730469,-2.0579205322265626,-1.2735516357421877,0.4580152671755725,-0.5572519083969465,0.7709923664122137
1.2208612060546875,0.6765930175781251,0.17872833251953127,-0.183206106870229,1.015267175572519,-0.5572519083969465
-3.00814453125,1.5950830078125,-0.4436773681640625,0.6793893129770993,2.763358778625954,-2.8167938931297707
-1.1050021362304687,2.252216491699219,3.337459716796875,0.07633587786259542,2.8396946564885495,-1.6030534351145038
0.8604107666015626,1.9959494018554689,3.194357299804688,0.2900763358778626,0.3511450381679389,0.42748091603053434
1.7696200561523439,0.2724334716796875,1.6408877563476563,0.022900763358778626,0.10687022900763359,0.05343511450381679
1.871707763671875,0.6556365966796875,0.918489990234375,0.061068702290076333,0.1297709923664122,0.0916030534351145
1.686991882324219,0.7265890502929688,0.7855664062500001,-0.11450381679389313,-0.06870229007633588,0.022900763358778626
1.5825091552734376,0.6158193969726563,0.6481521606445313,0.04580152671755725,0.007633587786259542,0.015267175572519083
1.439107360839844,0.5188211059570312,0.5391787719726563,0.04580152671755725,0.11450381679389313,-0.07633587786259542
1.289718017578125,0.7631130981445313,0.6580316162109375,-0.04580152671755725,-0.17557251908396945,-0.03816793893129771
1.4208453369140626,0.39038818359375,0.08173004150390625,-0.03816793893129771,0.022900763358778626,0.022900763358778626
1.1618838500976563,0.25387207031250003,0.30177246093750004,0.2595419847328244,-0.04580152671755725,0.1297709923664122
1.0295590209960939,0.5475613403320313,0.279019775390625,0.022900763358778626,-0.061068702290076333,0.08396946564885496
0.9852511596679688,0.38470001220703126,-0.01945953369140625,0.03816793893129771,-0.07633587786259542,0.03816793893129771
1.0217752075195312,-0.23590942382812502,-0.02245330810546875,0.6870229007633587,0.0916030534351145,-0.08396946564885496
0.6712042236328125,0.25806335449218754,0.15118560791015626,0.26717557251908397,0.0,-0.030534351145038167
0.7158114624023438,-0.2347119140625,0.028740234375,-0.366412213740458,-0.10687022900763359,0.0
0.8175997924804688,0.21704864501953125,-0.076640625,-0.20610687022900762,0.05343511450381679,0.022900763358778626
0.5888754272460938,0.2221380615234375,-0.07424560546875,-0.25190839694656486,-0.10687022900763359,0.04580152671755725
0.5439688110351563,0.33320709228515627,-0.11526031494140626,-0.06870229007633588,0.030534351145038167,0.022900763358778626
0.6092330932617188,0.4900808715820313,-0.3065625,-0.07633587786259542,0.015267175572519083,-0.022900763358778626
0.4808001708984375,0.41613464355468754,-0.02424957275390625,0.16030534351145037,0.10687022900763359,0.09923664122137404
0.3373983764648438,-0.26195526123046875,-0.28261230468750004,0.5419847328244275,-0.061068702290076333,-0.015267175572519083
0.484991455078125,-0.2760260009765625,-0.38769378662109377,-0.061068702290076333,0.05343511450381679,-0.05343511450381679
0.33859588623046877,-0.047601013183593756,-0.21824615478515627,-0.24427480916030533,-0.12213740458015267,0.030534351145038167
0.2556683349609375,0.00868194580078125,-0.14220428466796875,-0.22900763358778625,0.022900763358778626,-0.015267175572519083
-1.3801300048828127,0.2077679443359375,2.2270687866210936,-0.29770992366412213,0.183206106870229,0.21374045801526717
-4.947511596679687,1.1268566894531251,0.29189300537109375,1.3206106870229006,-1.8931297709923662,2.0076335877862594
-5.901627502441406,0.39667510986328125,-1.804647216796875,-0.32061068702290074,-2.297709923664122,3.763358778625954
0.31404693603515627,-0.6280938720703125,0.01945953369140625,-0.6259541984732824,-1.7786259541984732,2.1374045801526718
4.270020446777344,-2.5635690307617187,-0.4700225830078125,0.3511450381679389,0.16793893129770993,-0.7404580152671756
3.211421813964844,-2.084864501953125,-1.24780517578125,-0.13740458015267176,0.4809160305343511,-1.7862595419847327
-2.0384609985351565,-2.4578887939453127,-2.2546115112304688,0.8015267175572519,1.5267175572519083,-3.3664122137404577
-4.463118896484375,2.71834716796875,-0.4041595458984375,-0.5267175572519084,0.015267175572519083,-2.145038167938931
0.8840615844726563,1.6744180297851563,1.6828005981445313,-0.3511450381679389,0.06870229007633588,-0.1984732824427481
0.6771917724609375,2.348017272949219,1.0460247802734375,0.183206106870229,0.007633587786259542,0.5877862595419847
-2.558479614257813,2.2483245849609377,0.26794281005859377,-0.5190839694656488,-0.5343511450381679,2.6030534351145036
1.9438577270507813,-2.3704705810546876,-1.4543756103515626,-0.2900763358778626,-0.9618320610687022,0.83206106870229
2.835104370117188,-0.02724334716796875,0.04999603271484375,-0.3511450381679389,0.12213740458015267,0.10687022900763359
1.191522216796875,0.2856060791015625,0.25806335449218754,0.5114503816793893,0.6717557251908397,-0.8854961832061068
-0.25237518310546875,0.4017645263671875,-0.5789959716796875,0.40458015267175573,2.068702290076336,-2.0076335877862594
-0.2912942504882813,1.5184423828125,2.288740539550781,-0.6870229007633587,2.541984732824427,-2.267175572519084
0.19429595947265627,3.7065921020507813,4.0954833984375005,0.06870229007633588,-0.37404580152671757,0.17557251908396945
2.128872985839844,0.7969427490234375,2.1585113525390627,1.4809160305343512,1.0305343511450382,-0.366412213740458
1.7738113403320312,0.7068301391601562,1.2986993408203125,-0.4809160305343511,-0.08396946564885496,0.29770992366412213
1.909728698730469,0.21345611572265627,0.7696994018554688,-0.45038167938931295,0.16793893129770993,-0.16793893129770993
1.7121395874023437,0.9119036865234376,0.8484356689453125,-0.24427480916030533,-0.015267175572519083,-0.022900763358778626
1.8160235595703127,0.6017486572265626,0.7747888183593751,-0.282442748091603,-0.007633587786259542,-0.10687022900763359
1.44898681640625,1.1211685180664064,1.0963201904296875,-0.4580152671755725,-0.1450381679389313,-0.015267175572519083
1.4178515625,1.294208679199219,0.671802978515625,-0.4198473282442748,-0.2213740458015267,0.007633587786259542
1.2978012084960937,1.2181668090820312,0.7523355102539063,0.35877862595419846,0.10687022900763359,0.08396946564885496
1.191222839355469,0.9568103027343751,0.5463638305664062,0.21374045801526717,-0.030534351145038167,0.015267175572519083
1.17116455078125,0.9139993286132813,0.3242257690429688,0.030534351145038167,-0.10687022900763359,0.007633587786259542
0.9960287475585938,0.2721340942382813,0.017962646484375,0.5725190839694656,0.09923664122137404,-0.03816793893129771
0.7825726318359375,0.4182302856445313,0.44756927490234377,0.2900763358778626,-0.007633587786259542,0.04580152671755725
0.8214916992187501,0.029937744140625,0.02784210205078125,-0.05343511450381679,-0.07633587786259542,-0.09923664122137404
0.8080197143554688,0.4113446044921875,0.13382171630859377,-0.5190839694656488,0.015267175572519083,-0.05343511450381679
0.5966592407226563,0.7385641479492188,-0.09849517822265626,-0.11450381679389313,-0.04580152671755725,-0.015267175572519083
0.6358776855468751,0.7631130981445313,0.02185455322265625,0.23664122137404578,0.0916030534351145,0.10687022900763359
0.5104385375976562,0.3993695068359375,-0.061372375488281256,0.23664122137404578,0.022900763358778626,0.04580152671755725
0.5170248413085938,-0.032332763671875,-0.2915936279296875,0.2748091603053435,0.022900763358778626,-0.030534351145038167
0.6236032104492187,0.3469784545898438,-0.10059082031250001,-0.061068702290076333,-0.030534351145038167,-0.007633587786259542
0.44996429443359376,0.10987152099609375,-0.12663665771484375,-0.1984732824427481,-0.061068702290076333,0.0
0.16645385742187502,0.4358935546875,0.5634283447265626,-0.648854961832061,0.07633587786259542,0.183206106870229
-3.5305581665039063,-0.1574725341796875,1.8327886962890625,1.1374045801526718,-1.213740458015267,0.7862595419847328
-6.491999816894531,3.818858642578125,-0.16914825439453127,-0.4198473282442748,-3.7251908396946565,1.9770992366412212
-2.733914794921875,1.658551025390625,0.6304888916015625,-0.40458015267175573,-2.16030534351145,2.4885496183206106
2.858156433105469,-3.1799871826171877,-0.5801934814453126,0.6030534351145038,0.022900763358778626,-1.282442748091603
