accel.x,accel.y,accel.z,gyro.x,gyro.y,gyro.z
-0.04460723876953125,1.1385324096679688,-0.3619473266601563,-0.549618320610687,-0.007633587786259542,-0.015267175572519083
0.006286926269531251,0.34518218994140626,-0.31793884277343754,0.6717557251908397,-0.061068702290076333,0.11450381679389313
0.006286926269531251,0.34518218994140626,-0.31793884277343754,0.6717557251908397,-0.061068702290076333,0.11450381679389313
0.006286926269531251,0.34518218994140626,-0.31793884277343754,0.6717557251908397,-0.061068702290076333,0.11450381679389313
0.006286926269531251,0.34518218994140626,-0.31793884277343754,0.6717557251908397,-0.061068702290076333,0.11450381679389313
0.006286926269531251,0.34518218994140626,-0.31793884277343754,0.6717557251908397,-0.061068702290076333,0.11450381679389313
0.006286926269531251,0.34518218994140626,-0.31793884277343754,0.6717557251908397,-0.061068702290076333,0.11450381679389313
-0.15777191162109375,-0.48139892578125004,-0.08083190917968751,0.007633587786259542,-0.030534351145038167,0.0
-0.15208374023437501,-0.3254232788085938,-0.12543914794921876,-0.05343511450381679,-0.022900763358778626,0.0
-0.1550775146484375,-0.22363494873046877,-0.10508148193359376,0.015267175572519083,-0.015267175572519083,0.0
-0.1490899658203125,-0.154478759765625,-0.13801300048828125,-0.022900763358778626,-0.015267175572519083,0.0
-0.130528564453125,-0.09909393310546875,-0.10089019775390626,-0.030534351145038167,-0.007633587786259542,0.015267175572519083
-0.1574725341796875,-0.0401165771484375,-0.09011260986328125,-0.015267175572519083,-0.022900763358778626,0.03816793893129771
-0.10089019775390626,0.05718109130859375,-0.22273681640625,-0.09923664122137404,0.03816793893129771,-0.03816793893129771
-0.0592767333984375,0.011975097656250001,-0.26614654541015625,0.1450381679389313,-0.03816793893129771,-0.022900763358778626
-0.12214599609375,0.020357666015625,-0.183218994140625,-0.05343511450381679,-0.015267175572519083,-0.030534351145038167
-0.0772393798828125,-0.08801696777343751,-0.16375946044921877,-0.022900763358778626,-0.022900763358778626,-0.05343511450381679
-0.07993377685546875,-0.11017089843750001,-0.19249969482421875,0.09923664122137404,-0.015267175572519083,-0.022900763358778626
-0.09370513916015626,-0.10448272705078125,-0.21016296386718752,0.03816793893129771,-0.007633587786259542,0.007633587786259542
-0.0987945556640625,-0.10448272705078125,-0.21704864501953125,-0.10687022900763359,-0.007633587786259542,0.007633587786259542
-0.1389111328125,-0.030835876464843752,-0.26794281005859377,-0.07633587786259542,-0.007633587786259542,-0.007633587786259542
-0.055384826660156254,0.1981878662109375,-0.2808160400390625,-0.17557251908396945,0.030534351145038167,-0.015267175572519083
-0.0383203125,0.3445834350585938,-0.32841705322265624,-0.2595419847328244,0.0,-0.015267175572519083
-0.10867401123046876,0.5445675659179687,-0.1478924560546875,-0.183206106870229,-0.06870229007633588,0.0
-0.09310638427734376,0.6879693603515625,-0.1431024169921875,-0.1297709923664122,-0.007633587786259542,-0.007633587786259542
-0.09370513916015626,0.798739013671875,-0.07394622802734375,-0.24427480916030533,0.05343511450381679,0.007633587786259542
0.0628692626953125,0.8628057861328126,-0.0032931518554687503,-0.13740458015267176,0.10687022900763359,0.03816793893129771
-0.001197509765625,0.5742059326171876,-0.4421804809570313,0.26717557251908397,-0.1450381679389313,0.183206106870229
-0.011376342773437501,0.3972738647460938,-0.33141082763671875,0.0916030534351145,-0.11450381679389313,0.07633587786259542
-0.0652642822265625,0.49786468505859377,-0.2568658447265625,-0.04580152671755725,-0.03816793893129771,-0.03816793893129771
-0.12214599609375,0.5376818847656251,-0.23171813964843752,-0.030534351145038167,-0.022900763358778626,-0.04580152671755725
-0.06586303710937501,0.4709207153320313,-0.350870361328125,-0.1297709923664122,0.03816793893129771,-0.015267175572519083
-0.07813751220703126,0.4796026611328125,-0.2954855346679688,-0.11450381679389313,0.11450381679389313,-0.07633587786259542
-0.17453704833984376,0.5236111450195313,0.0161663818359375,0.08396946564885496,-0.03816793893129771,0.030534351145038167
-0.11555969238281251,0.28231292724609375,-0.219144287109375,0.16030534351145037,-0.1297709923664122,0.11450381679389313
-0.1407073974609375,0.2245330810546875,-0.18441650390625,0.11450381679389313,-0.183206106870229,0.022900763358778626
-0.15657440185546875,0.17244140625,-0.18830841064453127,-0.007633587786259542,0.061068702290076333,-0.0916030534351145
-0.1490899658203125,0.10089019775390626,-0.17453704833984376,0.022900763358778626,0.04580152671755725,-0.10687022900763359
-0.11316467285156251,0.0029937744140625003,-0.2149530029296875,-0.07633587786259542,-0.022900763358778626,-0.08396946564885496
-0.2709365844726563,0.07753875732421875,-0.228724365234375,0.3282442748091603,-0.04580152671755725,0.1450381679389313
-0.13681549072265625,0.09610015869140626,-0.41912841796875,0.24427480916030533,0.26717557251908397,0.25190839694656486
0.3263214111328125,-0.40745269775390625,-0.9253756713867188,1.7404580152671756,1.083969465648855,0.7786259541984732
1.20948486328125,-1.9435583496093751,-0.1754351806640625,0.11450381679389313,0.6946564885496183,0.16793893129770993
1.5777191162109376,-1.387614440917969,-0.7580236816406251,-0.8473282442748091,-0.10687022900763359,-0.24427480916030533
1.19990478515625,-0.39008880615234376,-1.1517050170898437,-0.732824427480916,-0.5114503816793893,-0.13740458015267176
0.348475341796875,-0.3092568969726563,-0.4448748779296875,0.5343511450381679,-0.6412213740458015,0.05343511450381679
-0.19639160156250002,-0.7900570678710938,0.18441650390625,0.6183206106870229,-0.47328244274809156,-0.2900763358778626
-0.29189300537109375,-1.140029296875,0.7041357421875001,0.21374045801526717,-0.32061068702290074,-0.061068702290076333
-0.437091064453125,-1.3382171630859376,1.1235635375976563,-0.0916030534351145,-0.41221374045801523,0.07633587786259542
-0.641865234375,-1.4711407470703126,1.4415023803710938,-0.05343511450381679,-0.4198473282442748,-0.12213740458015267
-0.7083270263671876,-1.50167724609375,1.7669256591796876,-0.09923664122137404,-0.38167938931297707,-0.17557251908396945
-0.3838018798828125,-1.3145663452148437,1.8779946899414064,-0.3129770992366412,-0.17557251908396945,-0.11450381679389313
-0.3838018798828125,-1.3145663452148437,1.8779946899414064,-0.3129770992366412,-0.17557251908396945,-0.11450381679389313
-0.3838018798828125,-1.3145663452148437,1.8779946899414064,-0.3129770992366412,-0.17557251908396945,-0.11450381679389313
-0.3838018798828125,-1.3145663452148437,1.8779946899414064,-0.3129770992366412,-0.17557251908396945,-0.11450381679389313
-0.02604583740234375,-1.1930191040039062,-0.0437091064453125,-0.4961832061068702,0.015267175572519083,-0.022900763358778626
-0.28021728515625,-0.4221221923828125,-0.3445834350585938,-0.8625954198473282,-0.1984732824427481,-0.10687022900763359
-0.336500244140625,-0.045205993652343755,-0.19429595947265627,-0.09923664122137404,0.022900763358778626,-0.2213740458015267
-0.27542724609375,-0.1634600830078125,-0.15058685302734376,0.030534351145038167,-0.007633587786259542,-0.08396946564885496
-0.257464599609375,-0.0892144775390625,-0.13202545166015625,-0.007633587786259542,0.015267175572519083,0.061068702290076333
-0.6939569091796876,0.5861810302734375,-0.077838134765625,0.7022900763358778,0.22900763358778625,0.9694656488549618
0.255069580078125,0.7253915405273438,-0.1431024169921875,-0.3053435114503817,0.061068702290076333,0.6412213740458015
-0.19429595947265627,1.3232482910156251,0.22034179687500002,0.061068702290076333,-0.37404580152671757,0.5190839694656488
0.43888732910156253,3.047662353515625,-0.5834866333007813,-0.20610687022900762,-0.12213740458015267,0.9389312977099237
1.8648220825195314,2.2806573486328126,0.33709899902343754,-0.10687022900763359,0.5190839694656488,1.1526717557251909
2.15312255859375,1.354383544921875,0.5891748046875,0.007633587786259542,-0.03816793893129771,1.1603053435114503
2.4932153320312502,0.13921051025390627,0.5376818847656251,-0.11450381679389313,-0.2900763358778626,1.0229007633587786
2.825823669433594,-0.23620880126953125,0.40266265869140627,0.1984732824427481,-0.2595419847328244,0.6641221374045801
2.6611660766601566,-0.9056167602539062,0.9996212768554688,-0.05343511450381679,-0.34351145038167935,0.1450381679389313
1.191222839355469,-1.119671630859375,0.6807843017578126,0.06870229007633588,-0.3129770992366412,-2.030534351145038
0.18351837158203127,0.32602203369140625,0.6819818115234375,-1.0381679389312977,0.5267175572519084,-2.3664122137404577
-2.741099853515625,1.537303161621094,-0.08352630615234376,1.984732824427481,0.3053435114503817,-2.7251908396946565
1.3873150634765625,-0.6658154296875001,0.6137237548828125,-1.0534351145038168,-0.3511450381679389,0.8167938931297709
1.251397705078125,0.4137396240234375,0.5110372924804688,0.4427480916030534,0.3969465648854962,-0.09923664122137404
-0.5062472534179687,-0.24279510498046877,1.1235635375976563,0.9236641221374046,-0.2595419847328244,1.534351145038168
-2.3102957153320314,0.11645782470703125,-0.08592132568359376,0.1984732824427481,-0.9694656488549618,2.4351145038167936
-0.5334906005859376,0.7065307617187501,0.032931518554687504,-0.5801526717557252,-0.26717557251908397,1.6793893129770991
1.304088134765625,0.948427734375,1.4253359985351564,-0.45038167938931295,-0.20610687022900762,0.7938931297709924
2.419867858886719,0.1095721435546875,1.673819274902344,0.08396946564885496,-0.33587786259541985,0.4351145038167939
2.1210891723632814,-1.0819500732421876,0.9250762939453125,0.06870229007633588,-0.33587786259541985,-1.4122137404580153
0.12633728027343752,-0.7020401000976563,-0.17333953857421877,-0.1450381679389313,1.4198473282442747,-2.4198473282442747
-0.43110351562500004,0.02604583740234375,0.8023315429687501,-0.732824427480916,1.2900763358778626,-1.7938931297709924
-1.1927197265625,0.6667135620117188,0.9481283569335938,1.7099236641221374,1.3893129770992365,-1.4732824427480915
1.3403128051757813,0.60114990234375,0.7277865600585938,-0.9923664122137404,-0.8778625954198473,0.6641221374045801
1.68848876953125,0.6619235229492187,0.4218228149414063,-0.7022900763358778,0.022900763358778626,-0.05343511450381679
1.7381854248046875,0.901724853515625,0.055384826660156254,-0.21374045801526717,0.5038167938931297,-0.08396946564885496
0.89813232421875,2.5231530761718752,0.3418890380859375,-0.2213740458015267,0.1297709923664122,1.3129770992366412
-0.1622625732421875,1.9187100219726563,-0.34278717041015627,-0.9007633587786259,-0.29770992366412213,2.0381679389312977
0.11466156005859375,0.335302734375,-0.9083111572265625,-0.08396946564885496,0.20610687022900762,1.8396946564885495
1.1984078979492188,-0.4616400146484375,0.48678771972656254,-0.4580152671755725,-0.05343511450381679,1.0610687022900762
1.804647216796875,-0.31255004882812504,1.0544073486328125,-0.11450381679389313,-0.23664122137404578,0.732824427480916
2.2237756347656252,-0.81191162109375,0.6721023559570313,-0.6183206106870229,-0.5267175572519084,0.16030534351145037
1.39869140625,-1.033151550292969,0.1874102783203125,-0.46564885496183206,0.8778625954198473,-1.580152671755725
0.30805938720703124,0.2604583740234375,0.59156982421875,-0.8167938931297709,1.5877862595419847,-1.9923664122137403
-0.3936813354492188,1.6340020751953126,2.0133132934570312,0.4580152671755725,1.3435114503816794,-1.900763358778626
-1.0202783203125,4.239483947753906,0.5882766723632813,0.3282442748091603,1.900763358778626,-1.1526717557251909
2.235750732421875,-1.0879376220703125,0.4727169799804688,1.6030534351145038,-0.5954198473282443,0.47328244274809156
0.9873468017578125,-0.31823822021484377,1.2684622192382813,1.4351145038167938,-0.3893129770992366,1.0076335877862594
0.18681152343750002,1.4301260375976563,1.7190252685546876,-0.5038167938931297,0.37404580152671757,1.1526717557251909
-1.1085946655273438,1.150806884765625,0.38320312500000003,-0.6870229007633587,-0.030534351145038167,1.6335877862595418
0.1335223388671875,0.7673043823242188,0.7074288940429688,-0.5877862595419847,-0.20610687022900762,1.0610687022900762
0.1335223388671875,0.7673043823242188,0.7074288940429688,-0.5877862595419847,-0.20610687022900762,1.0610687022900762
0.1335223388671875,0.7673043823242188,0.7074288940429688,-0.5877862595419847,-0.20610687022900762,1.0610687022900762
0.1335223388671875,0.7673043823242188,0.7074288940429688,-0.5877862595419847,-0.20610687022900762,1.0610687022900762
0.1335223388671875,0.7673043823242188,0.7074288940429688,-0.5877862595419847,-0.20610687022900762,1.0610687022900762
0.1335223388671875,0.7673043823242188,0.7074288940429688,-0.5877862595419847,-0.20610687022900762,1.0610687022900762
0.1335223388671875,0.7673043823242188,0.7074288940429688,-0.5877862595419847,-0.20610687022900762,1.0610687022900762
0.8205935668945313,3.15424072265625,1.9992425537109375,1.099236641221374,0.07633587786259542,1.5419847328244274
2.3761587524414063,-0.013771362304687501,0.11555969238281251,-0.9236641221374046,-0.17557251908396945,-0.11450381679389313
0.5499563598632813,2.2827529907226562,-0.009580078125,-0.3053435114503817,-0.9923664122137404,1.1450381679389312
0.26075775146484376,1.806742858886719,-0.7589218139648438,0.05343511450381679,0.7175572519083969,1.7557251908396947
-1.5669415283203125,1.6295114135742188,-0.149688720703125,-0.2595419847328244,0.46564885496183206,2.381679389312977
-0.2808160400390625,-0.8840615844726563,0.6933581542968751,-0.10687022900763359,-0.0916030534351145,1.5190839694656488
1.2235556030273438,-0.707728271484375,1.1211685180664064,-0.46564885496183206,-0.007633587786259542,0.8473282442748091
2.1369561767578125,-0.908909912109375,0.5834866333007813,0.007633587786259542,-0.08396946564885496,0.2900763358778626
1.2325369262695314,-1.1388317871093752,0.3212319946289063,0.16793893129770993,-0.0916030534351145,-1.1450381679389312
-0.48798522949218753,-0.9349557495117188,0.39847137451171877,-0.10687022900763359,1.16793893129771,-2.7938931297709924
-1.2939093017578125,-0.6059399414062501,0.389190673828125,1.549618320610687,1.5877862595419847,-3.1526717557251906
0.532891845703125,4.2870849609375,1.4950909423828125,0.5954198473282443,0.3282442748091603,0.7862595419847328
2.403102722167969,0.016465759277343752,-0.13382171630859377,0.6870229007633587,0.09923664122137404,0.15267175572519084
-0.36823425292968753,0.5322930908203125,2.3917263793945316,0.732824427480916,-0.4198473282442748,1.549618320610687
-0.76880126953125,1.6552578735351564,0.4029620361328125,-0.34351145038167935,-0.25190839694656486,1.916030534351145
-0.7310797119140625,1.0002200317382812,0.8220904541015626,-0.42748091603053434,-0.17557251908396945,1.4045801526717556
1.1205697631835938,0.746048583984375,1.0080038452148439,-0.40458015267175573,-0.11450381679389313,0.8473282442748091
2.228565673828125,0.24129821777343752,1.4636563110351564,0.46564885496183206,-0.04580152671755725,0.3282442748091603
1.8492544555664063,-1.174757080078125,0.9604028320312501,0.4427480916030534,-0.29770992366412213,-1.045801526717557
-0.18531463623046876,-0.667012939453125,0.0580792236328125,-0.29770992366412213,0.5419847328244275,-2.4198473282442747
-0.159268798828125,0.9466314697265625,0.7478448486328125,-1.5419847328244274,0.6183206106870229,-1.9541984732824427
-1.4795233154296876,0.681383056640625,1.5540682983398437,0.11450381679389313,1.8091603053435115,-1.4198473282442747
1.9728973388671875,0.2484832763671875,0.12244537353515626,-0.9770992366412213,0.007633587786259542,0.12213740458015267
1.2747491455078126,1.610351257324219,0.029937744140625,-0.5572519083969465,0.022900763358778626,0.15267175572519084
0.35176849365234375,2.5593777465820313,-0.0413140869140625,0.1450381679389313,0.15267175572519084,1.7099236641221374
-2.5099804687500002,1.743274841308594,-1.8256036376953126,-0.37404580152671757,0.48854961832061067,3.0534351145038165
0.286204833984375,-1.146016845703125,0.7179071044921875,-0.015267175572519083,0.007633587786259542,1.16793893129771
1.6205300903320314,-0.609532470703125,1.0244696044921875,-0.183206106870229,-0.16793893129770993,0.7022900763358778
2.236648864746094,-0.8376580810546875,1.0855426025390627,0.08396946564885496,-0.15267175572519084,0.2748091603053435
2.1905447387695314,-1.1924203491210938,1.014290771484375,0.40458015267175573,-0.2595419847328244,-0.25190839694656486
1.2759466552734375,-1.542392578125,0.7457492065429688,-0.42748091603053434,-0.33587786259541985,-1.916030534351145
0.7298822021484376,-0.2844085693359375,0.7717950439453125,-1.3435114503816794,1.2442748091603053,-2.4732824427480917
-1.896556091308594,0.944835205078125,0.31105316162109375,2.015267175572519,0.45038167938931295,-2.0
1.2960049438476564,1.6268170166015625,1.25259521484375,0.9007633587786259,-0.04580152671755725,0.42748091603053434
1.6600479125976564,0.02724334716796875,1.0759625244140625,0.8473282442748091,-0.42748091603053434,0.41221374045801523
0.5694158935546876,1.1735595703125001,1.755249938964844,0.16793893129770993,-0.7251908396946565,1.1068702290076335
-0.7406597900390626,1.0454260253906251,2.0971389770507813,-0.07633587786259542,-0.5877862595419847,1.5572519083969465
-0.6529421997070313,0.38290374755859374,1.5846047973632813,-0.13740458015267176,-0.35877862595419846,1.5419847328244274
1.7771044921875,0.4966671752929688,1.2475057983398439,-0.13740458015267176,0.0,0.48854961832061067
2.4300466918945314,0.19130218505859375,1.6525634765625001,0.42748091603053434,-0.3282442748091603,0.4580152671755725
1.983076171875,-0.16585510253906252,1.2876223754882814,0.12213740458015267,-0.3053435114503817,-0.2595419847328244
0.27842102050781253,0.0143701171875,0.228724365234375,-0.4809160305343511,1.4351145038167938,-1.9389312977099236
0.45684997558593754,1.1217672729492187,2.5800347900390626,0.22900763358778625,1.5725190839694656,-0.8702290076335878
1.0615924072265626,1.8863772583007814,1.0460247802734375,-0.732824427480916,0.7862595419847328,-0.6106870229007634
1.2555889892578125,1.833387451171875,1.2406201171875,-0.9770992366412213,-0.1984732824427481,-0.2595419847328244
0.20357666015625,2.4270529174804687,0.775986328125,0.09923664122137404,-0.22900763358778625,1.381679389312977
-3.2584240722656252,1.52562744140625,0.305364990234375,0.007633587786259542,-0.8091603053435115,2.351145038167939
-3.2584240722656252,1.52562744140625,0.305364990234375,0.007633587786259542,-0.8091603053435115,2.351145038167939
-3.2584240722656252,1.52562744140625,0.305364990234375,0.007633587786259542,-0.8091603053435115,2.351145038167939
-3.2584240722656252,1.52562744140625,0.305364990234375,0.007633587786259542,-0.8091603053435115,2.351145038167939
-3.2584240722656252,1.52562744140625,0.305364990234375,0.007633587786259542,-0.8091603053435115,2.351145038167939
-3.2584240722656252,1.52562744140625,0.305364990234375,0.007633587786259542,-0.8091603053435115,2.351145038167939
-1.8112335205078125,1.0011181640625,1.3528866577148437,0.7633587786259541,1.1374045801526718,-2.091603053435114
0.7714956665039063,2.3321502685546878,-0.15956817626953126,0.9312977099236641,0.5725190839694656,0.23664122137404578
1.9387683105468752,0.09011260986328125,0.3909869384765625,1.0,-0.06870229007633588,0.26717557251908397
0.46104125976562504,0.5544470214843751,1.8411712646484375,-0.8015267175572519,-0.04580152671755725,0.7633587786259541
-1.5091616821289062,0.8454418945312501,1.4546749877929688,0.45038167938931295,-0.16030534351145037,1.732824427480916
-1.7429754638671875,0.25357269287109374,0.41703277587890625,-0.26717557251908397,0.05343511450381679,2.045801526717557
1.2286450195312502,0.0532891845703125,1.3013937377929687,-0.648854961832061,-0.32061068702290074,0.8396946564885496
2.4638763427734376,0.4808001708984375,1.2846286010742187,-0.061068702290076333,0.015267175572519083,0.183206106870229
2.1369561767578125,-0.19070343017578126,1.2975018310546875,0.3053435114503817,-0.13740458015267176,-0.29770992366412213
-0.2496807861328125,-0.36404296875000003,0.55564453125,-2.1221374045801524,1.1603053435114503,-1.8702290076335877
-2.308798828125,0.6721023559570313,1.5355068969726564,1.3969465648854962,1.618320610687023,-1.8549618320610686
1.0762619018554689,0.4293072509765625,2.1438418579101564,0.4351145038167939,-0.47328244274809156,0.7022900763358778
1.7118402099609376,0.5667214965820313,0.5385800170898438,-1.2061068702290076,0.40458015267175573,-0.46564885496183206
1.047821044921875,2.3641836547851565,-0.9325607299804688,-0.26717557251908397,0.3053435114503817,1.4427480916030533
-0.1047821044921875,1.7118402099609376,-0.724493408203125,-0.6564885496183206,0.05343511450381679,1.618320610687023
-0.15477813720703126,0.4149371337890625,0.18232086181640625,-0.2748091603053435,0.061068702290076333,1.7404580152671756
1.2292437744140625,-0.22064117431640626,0.641865234375,-0.08396946564885496,0.17557251908396945,1.0610687022900762
1.1331436157226562,-0.33171020507812504,1.2570858764648438,0.1297709923664122,0.030534351145038167,1.0534351145038168
2.018702087402344,-0.7038363647460938,0.7212002563476563,-0.1297709923664122,0.16030534351145037,0.7557251908396946
1.201102294921875,-1.28133544921875,1.69327880859375,-0.48854961832061067,-1.213740458015267,-0.6412213740458015
-0.9490264892578125,-1.272952880859375,1.5606546020507814,-0.5877862595419847,-0.38167938931297707,-3.2519083969465647
-1.0996133422851564,1.4516812133789063,1.1909234619140625,-0.5114503816793893,-0.07633587786259542,-2.83206106870229
0.5942642211914063,3.4452355957031253,-0.3323089599609375,0.3969465648854962,1.4427480916030533,0.6412213740458015
2.298021240234375,-0.36134857177734375,1.0585986328125,0.6030534351145038,-0.5038167938931297,0.282442748091603
1.7067507934570314,0.43230102539062504,0.9178912353515626,0.5419847328244275,0.23664122137404578,0.5419847328244275
-1.3968951416015625,1.3337265014648438,1.4846127319335938,-0.061068702290076333,0.09923664122137404,1.9541984732824427
-1.2615765380859376,0.5936654663085937,0.2547702026367188,-0.8778625954198473,0.16030534351145037,1.7709923664122136
0.22902374267578127,0.743653564453125,0.7283853149414062,-0.17557251908396945,-0.09923664122137404,0.9465648854961831
1.4271322631835939,0.841849365234375,0.6927593994140625,-0.3893129770992366,0.04580152671755725,0.7786259541984732
2.175875244140625,-0.0101788330078125,1.30049560546875,-0.3053435114503817,0.11450381679389313,0.32061068702290074
2.055824890136719,-0.10268646240234376,1.8342855834960938,0.1450381679389313,-0.24427480916030533,-0.04580152671755725
-0.238304443359375,-1.3959970092773437,0.9559121704101563,0.35877862595419846,-0.564885496183206,-2.610687022900763
-0.51732421875,-0.11526031494140626,0.7711962890625,-1.9236641221374045,0.5954198473282443,-2.610687022900763
-2.373164978027344,0.6996450805664063,2.777923278808594,2.0,1.9618320610687021,-2.2748091603053435
1.8444644165039064,-0.5269042968750001,0.861009521484375,-1.114503816793893,-0.22900763358778625,0.41221374045801523
1.7289047241210938,0.25956024169921876,0.61072998046875,-0.25190839694656486,0.22900763358778625,-0.3053435114503817
1.7178277587890627,1.0026150512695313,-0.6448590087890625,-0.7022900763358778,-0.45038167938931295,0.37404580152671757
0.6280938720703125,1.6744180297851563,-0.355660400390625,-0.6946564885496183,0.7022900763358778,1.1603053435114503
-0.6355783081054688,1.2014016723632812,-0.1574725341796875,-0.38167938931297707,-0.15267175572519084,1.7786259541984732
0.21555175781250002,-0.528101806640625,0.18830841064453127,-0.6183206106870229,0.47328244274809156,1.580152671755725
1.1927197265625,-1.04662353515625,0.87418212890625,-0.22900763358778625,-0.007633587786259542,1.114503816793893
1.9354751586914063,-0.7505392456054688,0.9502239990234376,-0.015267175572519083,0.061068702290076333,0.7099236641221374
1.9600241088867187,-0.7586224365234375,1.37713623046875,0.0,-0.15267175572519084,0.45038167938931295
1.7540524291992188,-1.1056008911132813,1.629810791015625,-0.07633587786259542,-0.4580152671755725,-0.2748091603053435
0.4846920776367188,-0.8283773803710938,0.6050418090820313,0.13740458015267176,-0.5725190839694656,-2.236641221374046
0.08053253173828126,0.13112731933593752,0.8343649291992188,-0.7633587786259541,-0.40458015267175573,-2.3893129770992365
-0.42870849609375,0.839454345703125,0.7954458618164063,0.5190839694656488,0.1450381679389313,-1.816793893129771
1.2948074340820312,1.569935302734375,0.02664459228515625,1.9770992366412212,0.1984732824427481,0.12213740458015267
1.996248779296875,-0.890947265625,0.858614501953125,0.12213740458015267,-0.2748091603053435,-0.007633587786259542
1.996248779296875,-0.890947265625,0.858614501953125,0.12213740458015267,-0.2748091603053435,-0.007633587786259542
1.996248779296875,-0.890947265625,0.858614501953125,0.12213740458015267,-0.2748091603053435,-0.007633587786259542
1.996248779296875,-0.890947265625,0.858614501953125,0.12213740458015267,-0.2748091603053435,-0.007633587786259542
1.996248779296875,-0.890947265625,0.858614501953125,0.12213740458015267,-0.2748091603053435,-0.007633587786259542
2.066003723144531,0.10508148193359376,1.3965957641601563,0.030534351145038167,0.06870229007633588,0.6106870229007634
2.1318667602539065,-0.6685098266601562,1.7019607543945314,0.48854961832061067,-0.2900763358778626,-0.5038167938931297
0.4340972900390625,-1.6115487670898438,1.0708731079101563,0.5190839694656488,-0.7404580152671756,-2.145038167938931
-0.3227288818359375,1.5627502441406251,0.5861810302734375,-1.015267175572519,0.24427480916030533,-1.7633587786259541
1.8636245727539062,0.5631289672851563,0.499361572265625,-1.1603053435114503,-0.061068702290076333,0.2213740458015267
1.2091854858398439,1.4052777099609375,0.26794281005859377,-1.1374045801526718,-0.19083969465648853,0.030534351145038167
0.6529421997070313,1.3693524169921876,-0.18920654296875,-0.38167938931297707,-0.42748091603053434,1.2290076335877862
-0.20447479248046876,1.3606704711914064,0.2077679443359375,-0.29770992366412213,-0.2213740458015267,1.6870229007633588
0.22573059082031252,0.1167572021484375,0.8328680419921876,-0.11450381679389313,-0.21374045801526717,1.8244274809160304
1.5334112548828125,-0.5457650756835938,0.8376580810546875,-0.08396946564885496,-0.08396946564885496,1.1526717557251909
1.9208056640625002,-0.23111938476562502,0.7385641479492188,-0.07633587786259542,0.06870229007633588,0.6564885496183206
2.005828857421875,-0.47990203857421876,0.8211923217773438,0.03816793893129771,0.030534351145038167,0.6335877862595419
0.9613009643554687,-1.85135009765625,0.918489990234375,0.23664122137404578,-0.5419847328244275,-1.732824427480916
-0.9942324829101563,0.006885681152343751,0.2517764282226563,-0.549618320610687,1.1908396946564885,-2.9083969465648853
-2.437830505371094,1.749561767578125,1.4471905517578125,1.9083969465648853,0.8473282442748091,-1.8015267175572518
1.6349002075195314,0.6352789306640625,0.9223818969726563,0.9618320610687022,-0.1297709923664122,0.022900763358778626
2.0342697143554687,0.01047821044921875,0.48678771972656254,1.2900763358778626,-0.0916030534351145,0.10687022900763359
0.7427554321289063,0.28111541748046875,1.9743942260742189,0.7404580152671756,-0.26717557251908397,1.045801526717557
-0.5376818847656251,1.43701171875,1.653760986328125,-0.6870229007633587,-0.35877862595419846,1.4809160305343512
0.207169189453125,0.8457412719726562,0.9921368408203125,-0.1450381679389313,-0.4580152671755725,0.916030534351145
1.2334350585937501,0.820294189453125,1.347198486328125,-0.282442748091603,-0.12213740458015267,0.7709923664122137
2.2088067626953127,0.35775604248046877,1.8154248046875001,-0.1450381679389313,-0.22900763358778625,0.5038167938931297
2.3067031860351563,0.0221539306640625,1.7962646484375,0.4580152671755725,-0.1297709923664122,0.5267175572519084
1.7750088500976564,-0.852626953125,1.6100518798828125,0.23664122137404578,-0.4351145038167939,-1.083969465648855
-0.077838134765625,0.32063323974609376,0.7116201782226563,-2.1068702290076335,0.3511450381679389,-2.16793893129771
-0.647852783203125,-0.05478607177734375,2.6228457641601564,0.7786259541984732,1.648854961832061,-1.4045801526717556
1.7247134399414064,-0.0963995361328125,0.7092251586914062,-1.3282442748091603,-0.366412213740458,0.4351145038167939
1.6606466674804687,1.4136602783203125,0.7235952758789063,-0.5267175572519084,0.4580152671755725,-0.35877862595419846
0.8032296752929687,2.0549267578125,-1.0220745849609376,-0.549618320610687,0.12213740458015267,1.2213740458015268
-0.38709503173828125,0.8436456298828126,-0.30686187744140625,-0.26717557251908397,0.183206106870229,1.9083969465648853
-0.7235952758789063,-0.0335302734375,0.30147308349609375,-0.21374045801526717,0.46564885496183206,1.8625954198473282
0.8122109985351563,-0.726888427734375,0.7870632934570313,-0.3893129770992366,0.2748091603053435,1.2519083969465647
1.9486477661132813,-0.6732998657226563,1.28133544921875,0.08396946564885496,-0.05343511450381679,0.83206106870229
1.9932550048828126,-0.8520281982421876,1.310973815917969,0.08396946564885496,-0.282442748091603,0.4580152671755725
1.8576370239257813,-1.6627423095703127,1.6606466674804687,0.4580152671755725,-0.366412213740458,-0.6259541984732824
-0.5514532470703125,-1.9821780395507813,0.9894424438476563,0.42748091603053434,-1.3053435114503815,-2.198473282442748
-1.033450927734375,-0.8187973022460938,0.4655319213867188,-1.8931297709923662,-0.5038167938931297,-3.0381679389312977
-2.6297314453125002,0.24040008544921876,0.417930908203125,3.3206106870229006,1.916030534351145,-2.267175572519084
1.7492623901367188,0.6158193969726563,0.25267456054687504,0.21374045801526717,-0.05343511450381679,0.2595419847328244
1.2076885986328125,-0.1778302001953125,1.3654605102539064,0.6030534351145038,-0.13740458015267176,0.6793893129770993
0.13142669677734375,0.5867797851562501,2.6737399291992188,0.6335877862595419,-0.38167938931297707,1.3511450381679388
-0.9274713134765625,1.3418096923828127,0.8478369140625001,0.33587786259541985,0.183206106870229,1.8931297709923662
-0.3296145629882813,0.2281256103515625,0.8484356689453125,-0.3282442748091603,0.08396946564885496,1.2671755725190839
1.6902850341796876,0.7247927856445313,1.0475216674804688,-0.40458015267175573,0.05343511450381679,0.5877862595419847
2.389031982421875,0.43080413818359375,1.3669573974609375,0.10687022900763359,-0.16030534351145037,0.3893129770992366
1.6908837890625001,-0.6756948852539063,1.0792556762695313,0.38167938931297707,-0.29770992366412213,-0.41221374045801523
-0.24908203125,-1.5190411376953126,1.1199710083007812,0.007633587786259542,-0.45038167938931295,-2.5725190839694654
-0.24908203125,-1.5190411376953126,1.1199710083007812,0.007633587786259542,-0.45038167938931295,-2.5725190839694654
-0.24908203125,-1.5190411376953126,1.1199710083007812,0.007633587786259542,-0.45038167938931295,-2.5725190839694654
-0.24908203125,-1.5190411376953126,1.1199710083007812,0.007633587786259542,-0.45038167938931295,-2.5725190839694654
0.10568023681640626,2.621947631835938,-0.6460565185546875,-0.3511450381679389,0.21374045801526717,1.7175572519083968
-2.219883728027344,1.7354910278320312,1.39869140625,0.12213740458015267,-0.83206106870229,2.9236641221374047
-0.11795471191406251,0.07574249267578126,0.5972579956054688,0.45038167938931295,0.42748091603053434,1.4274809160305344
0.99393310546875,-0.7682025146484376,0.833466796875,0.1297709923664122,0.16030534351145037,0.8549618320610687
2.2737716674804687,-0.7047344970703125,1.1056008911132813,-0.19083969465648853,0.030534351145038167,0.4809160305343511
2.331551513671875,-0.7214996337890626,1.0876382446289063,0.11450381679389313,-0.04580152671755725,0.1297709923664122
1.7031582641601564,-1.1023077392578124,1.2717553710937501,-0.0916030534351145,-0.20610687022900762,-0.38167938931297707
0.22483245849609376,-1.2750485229492188,0.43379791259765627,-0.19083969465648853,-0.8625954198473282,-1.8549618320610686
-1.229543151855469,0.6712042236328125,0.8711883544921876,-1.8625954198473282,0.5038167938931297,-2.3664122137404577
-2.707569580078125,2.312091979980469,1.0696755981445314,1.7786259541984732,1.1450381679389312,-2.396946564885496
1.8136285400390626,0.669407958984375,0.4137396240234375,0.8931297709923663,-0.0916030534351145,-0.2595419847328244
1.962718505859375,0.23321502685546877,0.13112731933593752,0.8244274809160305,0.04580152671755725,0.04580152671755725
0.7610174560546875,0.25836273193359377,2.2935305786132814,0.8244274809160305,-0.22900763358778625,0.9465648854961831
-0.4032614135742188,0.4263134765625,2.4869284057617187,0.33587786259541985,-0.32061068702290074,1.3893129770992365
-1.2280462646484376,1.0975177001953125,1.3998889160156252,-0.16793893129770993,-0.366412213740458,1.6259541984732824
1.047821044921875,0.35715728759765625,1.2241543579101564,-0.20610687022900762,-0.22900763358778625,0.9236641221374046
1.6567547607421875,0.8918453979492188,1.5759228515625001,-0.16793893129770993,-0.16793893129770993,0.5725190839694656
2.472258911132813,0.4640350341796875,1.6241226196289062,0.40458015267175573,-0.11450381679389313,0.4809160305343511
2.2935305786132814,-0.17154327392578125,1.4995816040039063,0.4351145038167939,-0.42748091603053434,0.07633587786259542
1.3385165405273438,-1.4729370117187501,1.327738952636719,1.0916030534351144,-0.3511450381679389,-1.3893129770992365
-0.29608428955078125,-1.4834152221679688,0.45565246582031255,0.4961832061068702,-1.2519083969465647,-2.1908396946564883
0.21046234130859376,-0.1239422607421875,0.4302053833007813,-2.564885496183206,0.4351145038167939,-2.381679389312977
-1.17116455078125,1.9591259765625002,2.7830126953125003,0.32061068702290074,0.5954198473282443,-0.8702290076335878
1.8606307983398438,0.3074606323242188,0.51492919921875,-0.26717557251908397,-0.06870229007633588,0.42748091603053434
1.08973388671875,1.8788928222656252,0.7442523193359375,-0.9465648854961831,-0.0916030534351145,-0.22900763358778625
0.6870712280273438,1.3843212890625,-0.3799099731445313,0.37404580152671757,-0.23664122137404578,1.816793893129771
-0.42272094726562504,0.7466473388671876,-0.42272094726562504,-0.35877862595419846,0.16030534351145037,1.8702290076335877
0.3921844482421875,-0.6685098266601562,0.279019775390625,-0.007633587786259542,0.23664122137404578,1.6564885496183206
1.572330322265625,-0.4245172119140625,1.2160711669921875,-0.282442748091603,0.15267175572519084,0.8931297709923663
2.1189935302734377,-0.5990542602539063,1.0145901489257814,0.25190839694656486,0.05343511450381679,0.5419847328244275
2.5593777465820313,-1.2981005859375,1.7010626220703127,0.5038167938931297,0.061068702290076333,-0.0916030534351145
1.2145742797851564,-1.02746337890625,2.138453063964844,-0.04580152671755725,-1.2061068702290076,-0.7938931297709924
-0.183218994140625,-0.67779052734375,0.2721340942382813,-0.8854961832061068,-1.045801526717557,-2.068702290076336
-1.3980926513671876,0.767603759765625,1.2930111694335937,1.3511450381679388,0.21374045801526717,-2.541984732824427
1.3250445556640627,1.232237548828125,0.6786886596679688,0.9236641221374046,-0.183206106870229,-0.183206106870229
2.049537963867188,0.018262023925781252,0.7149133300781251,0.5190839694656488,-0.29770992366412213,-0.22900763358778625
1.6163388061523438,0.3239263916015625,1.2280462646484376,0.9389312977099237,0.2213740458015267,0.6946564885496183
0.5068460083007813,0.9205856323242188,2.4932153320312502,-0.2595419847328244,-0.15267175572519084,0.9007633587786259
-0.6409671020507813,1.2169692993164063,1.866618347167969,0.20610687022900762,-0.022900763358778626,1.4427480916030533
-0.30566436767578126,0.080233154296875,1.349593505859375,0.2900763358778626,0.21374045801526717,1.3129770992366412
0.9583071899414063,0.6035449218750001,1.1121871948242188,0.4351145038167939,0.22900763358778625,0.9236641221374046
2.162403259277344,0.3320095825195313,0.9753717041015626,0.23664122137404578,0.26717557251908397,0.7099236641221374
2.5429119873046875,-0.35775604248046877,1.2463082885742187,-0.19083969465648853,0.2213740458015267,0.015267175572519083
1.5082635498046877,-0.7945477294921875,1.5837066650390625,0.4351145038167939,-0.6335877862595419,-0.8396946564885496
-0.7439529418945313,-1.08494384765625,0.6164181518554688,0.06870229007633588,-1.6106870229007633,-1.9083969465648853
-1.2702584838867188,-0.11316467285156251,-0.07873626708984376,-3.2213740458015265,0.6793893129770993,-2.541984732824427
1.44898681640625,1.8223104858398438,1.9705023193359377,-0.23664122137404578,-0.007633587786259542,0.10687022900763359
1.5492782592773438,1.272952880859375,0.6361770629882812,-0.5267175572519084,-0.6412213740458015,0.061068702290076333
0.2712359619140625,2.2941293334960937,-1.0708731079101563,-0.9847328244274809,-0.47328244274809156,1.0610687022900762
-1.0100994873046876,1.80823974609375,-1.0241702270507813,-0.5725190839694656,0.549618320610687,1.8702290076335877
-1.354084167480469,0.67300048828125,-0.42840911865234377,-0.41221374045801523,0.3053435114503817,2.2061068702290076
0.18202148437500001,-1.294208679199219,0.5993536376953126,-0.09923664122137404,0.15267175572519084,1.4961832061068703
1.6558566284179688,-0.8699908447265625,0.9601034545898438,-0.16793893129770993,0.15267175572519084,0.6717557251908397
1.6558566284179688,-0.8699908447265625,0.9601034545898438,-0.16793893129770993,0.15267175572519084,0.6717557251908397
1.6558566284179688,-0.8699908447265625,0.9601034545898438,-0.16793893129770993,0.15267175572519084,0.6717557251908397
1.6558566284179688,-0.8699908447265625,0.9601034545898438,-0.16793893129770993,0.15267175572519084,0.6717557251908397
1.6558566284179688,-0.8699908447265625,0.9601034545898438,-0.16793893129770993,0.15267175572519084,0.6717557251908397
1.6558566284179688,-0.8699908447265625,0.9601034545898438,-0.16793893129770993,0.15267175572519084,0.6717557251908397
1.0726693725585938,0.9379495239257813,0.5275030517578125,-0.7786259541984732,0.83206106870229,0.030534351145038167
1.9423608398437502,1.0475216674804688,0.40086639404296875,0.3969465648854962,0.37404580152671757,0.10687022900763359
0.74006103515625,0.5062472534179687,1.4543756103515626,0.4198473282442748,0.47328244274809156,1.2595419847328244
-2.0288809204101566,0.8577163696289063,1.40108642578125,0.2748091603053435,0.4580152671755725,2.068702290076336
-2.1549188232421876,-0.23321502685546877,0.31674133300781254,-0.5419847328244275,0.25190839694656486,2.145038167938931
1.0840457153320313,0.30805938720703124,0.15298187255859375,-1.2671755725190839,0.2213740458015267,0.6412213740458015
1.8250048828125,0.0520916748046875,1.2157717895507814,-0.10687022900763359,-0.17557251908396945,0.3893129770992366
2.4878265380859377,-0.8855584716796876,1.569935302734375,0.9465648854961831,-0.10687022900763359,-0.33587786259541985
0.77838134765625,-1.56394775390625,1.4974859619140626,0.9236641221374046,-1.1068702290076335,-1.5725190839694656
0.18711090087890625,-0.619112548828125,0.75443115234375,-0.9770992366412213,-1.0381679389312977,-2.16793893129771
-0.9346563720703126,2.8626470947265625,2.055824890136719,-0.48854961832061067,-0.7633587786259541,-0.5267175572519084
1.4271322631835939,-0.03203338623046875,0.6253994750976563,-1.3587786259541985,0.46564885496183206,0.17557251908396945
1.5235317993164064,1.7022601318359376,0.8460406494140625,-1.2748091603053435,-0.030534351145038167,-0.5419847328244275
0.8957373046875,2.4905209350585937,0.680185546875,0.015267175572519083,-0.4580152671755725,0.648854961832061
0.5284011840820313,2.118394775390625,0.8208929443359375,0.061068702290076333,0.46564885496183206,1.450381679389313
-1.2876223754882814,1.6663348388671877,0.0532891845703125,-0.8244274809160305,-0.022900763358778626,1.9236641221374045
0.10627899169921876,-2.259700927734375,0.5637277221679687,-0.6030534351145038,-0.17557251908396945,1.7557251908396947
1.871408386230469,-1.3597723388671876,1.0529104614257814,0.07633587786259542,0.07633587786259542,0.5038167938931297
2.056124267578125,-0.7846682739257813,1.4397061157226563,0.007633587786259542,-0.07633587786259542,0.2595419847328244
1.9226019287109375,-0.8289761352539063,1.5067666625976563,0.3511450381679389,-0.21374045801526717,0.007633587786259542
0.6595285034179688,-1.5630496215820313,1.9693048095703125,0.030534351145038167,-1.3282442748091603,-1.549618320610687
-0.39817199707031253,-0.5637277221679687,-0.017663269042968752,-3.465648854961832,-0.5343511450381679,-3.312977099236641
0.7223977661132813,2.292632446289063,0.7798782348632813,0.9083969465648855,0.17557251908396945,0.183206106870229
2.1486318969726566,-0.5026547241210938,0.6756948852539063,1.2290076335877862,-0.282442748091603,0.13740458015267176
1.6091537475585938,1.4636563110351564,1.4265335083007813,0.47328244274809156,0.40458015267175573,0.7175572519083969
-0.6469546508789062,1.0891351318359375,1.618733825683594,-0.5954198473282443,0.549618320610687,1.5725190839694656
-1.0089019775390626,0.3469784545898438,1.1169772338867188,-0.5190839694656488,-0.2213740458015267,1.8091603053435115
0.38619689941406254,0.5822891235351563,0.7670050048828125,-0.4198473282442748,-0.17557251908396945,1.2290076335877862
1.6816030883789064,0.5140310668945313,1.0786569213867188,-0.4427480916030534,0.0916030534351145,0.5190839694656488
2.1109103393554687,0.3430865478515625,1.5085629272460939,0.19083969465648853,-0.007633587786259542,0.3969465648854962
1.6115487670898438,-0.8822653198242187,1.7259109497070313,0.6946564885496183,-0.5725190839694656,-0.6259541984732824
-0.7526348876953125,-1.0229727172851564,0.9801617431640626,-1.5267175572519083,-0.5190839694656488,-2.801526717557252
-1.8193167114257813,-1.2292437744140625,1.4456936645507814,-1.1450381679389312,2.8931297709923665,-1.7862595419847327
0.6577322387695312,1.7995578002929689,3.181184692382813,0.19083969465648853,-0.19083969465648853,0.11450381679389313
1.4699432373046877,1.6762142944335938,0.38859191894531253,-1.0534351145038168,-0.11450381679389313,0.1984732824427481
0.3299139404296875,2.0510348510742187,-1.4343173217773437,-0.5190839694656488,-0.16793893129770993,1.6793893129770991
-0.40116577148437504,0.6370751953125,0.544866943359375,0.23664122137404578,0.7786259541984732,1.8091603053435115
0.7990383911132813,-0.22363494873046877,1.1226654052734375,-0.03816793893129771,0.5572519083969465,1.0916030534351144
1.9489471435546877,-0.7325765991210937,1.2220587158203127,-0.04580152671755725,0.3511450381679389,0.366412213740458
2.229164428710938,-0.041613464355468754,1.299298095703125,-0.07633587786259542,0.1297709923664122,0.4351145038167939
2.1237835693359375,-0.4218228149414063,1.2867242431640626,-0.20610687022900762,-0.08396946564885496,0.46564885496183206
1.5211367797851563,-0.7334747314453125,1.3460009765625,0.33587786259541985,-0.5954198473282443,0.22900763358778625
-1.7753082275390626,-1.1825408935546875,0.7607180786132813,-1.0229007633587786,-0.8091603053435115,-3.1526717557251906
-3.028202819824219,0.7870632934570313,2.768343200683594,1.1374045801526718,0.06870229007633588,-2.9847328244274807
0.15657440185546875,1.0663824462890625,-1.3642630004882814,1.8854961832061068,-0.13740458015267176,-0.6335877862595419
2.2339544677734375,-0.3350033569335938,-0.908909912109375,-0.20610687022900762,-0.35877862595419846,-0.732824427480916
2.2339544677734375,-0.3350033569335938,-0.908909912109375,-0.20610687022900762,-0.35877862595419846,-0.732824427480916
2.2339544677734375,-0.3350033569335938,-0.908909912109375,-0.20610687022900762,-0.35877862595419846,-0.732824427480916
2.2339544677734375,-0.3350033569335938,-0.908909912109375,-0.20610687022900762,-0.35877862595419846,-0.732824427480916
2.2339544677734375,-0.3350033569335938,-0.908909912109375,-0.20610687022900762,-0.35877862595419846,-0.732824427480916
1.7339941406250001,0.092208251953125,1.1238629150390627,0.23664122137404578,-0.21374045801526717,0.6030534351145038
1.7339941406250001,0.092208251953125,1.1238629150390627,0.23664122137404578,-0.21374045801526717,0.6030534351145038
-0.2245330810546875,-1.6600479125976564,0.6786886596679688,0.183206106870229,-0.1984732824427481,-2.6030534351145036
-1.0523117065429688,-0.10089019775390626,0.7062313842773438,-2.0534351145038165,0.5190839694656488,-2.709923664122137
-2.655477905273438,1.7786013793945314,2.109114074707031,-0.42748091603053434,1.2366412213740459,-2.6030534351145036
1.3660592651367187,0.7909552001953125,1.4163546752929688,0.03816793893129771,-0.7175572519083969,0.8854961832061068
1.4932946777343752,1.26217529296875,0.8137078857421876,0.19083969465648853,0.2900763358778626,-0.3893129770992366
-0.3209326171875,1.17595458984375,-1.4498849487304688,-0.41221374045801523,0.3511450381679389,1.6946564885496183
-0.6975494384765626,-0.0568817138671875,-0.07394622802734375,-0.4198473282442748,0.8091603053435115,1.916030534351145
0.7768844604492188,-0.8322692871093751,0.9720785522460939,-0.6641221374045801,0.3969465648854962,1.3129770992366412
1.6822018432617187,-1.1091934204101563,1.1813433837890626,-0.07633587786259542,0.05343511450381679,0.8854961832061068
1.7720150756835937,-0.8190966796875,1.3582754516601563,0.10687022900763359,-0.26717557251908397,0.6717557251908397
2.31119384765625,-0.9915380859375,1.4421011352539064,0.20610687022900762,0.07633587786259542,0.46564885496183206
1.9121237182617188,-1.4337185668945314,1.785187683105469,-0.1297709923664122,-0.21374045801526717,-0.4351145038167939
0.09071136474609376,-1.124461669921875,1.3663586425781251,-1.0687022900763359,-0.7022900763358778,-1.5954198473282442
-0.8798703002929688,0.6562353515625,1.0217752075195312,-1.3969465648854962,0.3053435114503817,-2.610687022900763
-2.9530590820312503,1.1352392578125001,1.7534536743164064,1.5877862595419847,-1.015267175572519,-3.236641221374046
0.8894503784179688,0.9571096801757814,-0.7810757446289063,1.4198473282442747,0.07633587786259542,-0.366412213740458
1.9414627075195314,-0.9250762939453125,0.0484991455078125,0.4198473282442748,-0.35877862595419846,0.04580152671755725
0.6721023559570313,1.6893869018554688,1.8908679199218752,0.15267175572519084,0.5954198473282443,1.1374045801526718
-0.7625143432617187,2.019300842285156,1.6378939819335938,-0.732824427480916,0.2900763358778626,1.8473282442748091
0.5140310668945313,0.808319091796875,0.8131091308593751,-0.0916030534351145,-0.030534351145038167,1.0076335877862594
2.321672058105469,0.2912942504882813,1.1451187133789062,0.17557251908396945,0.07633587786259542,0.4427480916030534
2.2842498779296876,-0.08771759033203125,1.48251708984375,0.2213740458015267,-0.20610687022900762,0.32061068702290074
1.7327966308593752,-0.9223818969726563,1.167572021484375,0.07633587786259542,-0.16793893129770993,-0.6870229007633587
-0.3487747192382813,-1.9743942260742189,0.6268963623046875,0.6870229007633587,-0.6564885496183206,-2.312977099236641
-1.2109817504882814,-0.42810974121093753,0.4032614135742188,-1.0305343511450382,0.3282442748091603,-3.0229007633587783
0.3688330078125,3.869154052734375,1.0508148193359375,-0.007633587786259542,0.04580152671755725,0.11450381679389313
2.3677761840820315,-0.06346801757812501,0.5457650756835938,-0.6183206106870229,0.09923664122137404,-0.08396946564885496
1.4486874389648439,1.5840060424804687,-0.0305364990234375,-0.8625954198473282,-0.2748091603053435,0.15267175572519084
1.2579840087890626,2.0378622436523437,-2.0543280029296875,-0.7099236641221374,0.34351145038167935,1.2519083969465647
-0.9328601074218751,0.5783972167968751,-0.5128335571289063,-0.732824427480916,0.6259541984732824,1.8015267175572518
0.11526031494140626,-0.647852783203125,0.9427395629882813,0.03816793893129771,0.29770992366412213,1.564885496183206
1.5558645629882812,-1.0157876586914063,1.1717633056640626,-0.3053435114503817,-0.030534351145038167,0.8854961832061068
1.9193087768554689,-0.5134323120117188,0.9131011962890625,-0.16793893129770993,0.6412213740458015,0.47328244274809156
2.2710772705078126,-0.5218148803710938,1.253792724609375,0.0916030534351145,-0.007633587786259542,0.4427480916030534
1.9199075317382814,-0.8690927124023438,1.3693524169921876,0.4580152671755725,-0.15267175572519084,0.11450381679389313
1.3900094604492188,-2.04295166015625,1.4834152221679688,0.6717557251908397,-0.32061068702290074,-1.198473282442748
-0.7427554321289063,0.4903802490234375,0.094603271484375,-0.9236641221374046,-1.4885496183206106,-2.2061068702290076
-0.6831793212890626,1.0618917846679687,0.5930667114257813,0.9618320610687022,0.08396946564885496,-1.7175572519083968
1.3103750610351563,1.6959732055664063,0.37511993408203126,1.0076335877862594,-0.030534351145038167,-0.24427480916030533
2.096240844726563,-0.1622625732421875,0.7616162109375001,0.9694656488549618,-0.21374045801526717,0.3893129770992366
1.3642630004882814,-0.223934326171875,1.6603472900390626,0.8167938931297709,-0.29770992366412213,0.9083969465648855
1.0268646240234376,1.1355386352539063,2.58901611328125,0.2900763358778626,-0.21374045801526717,1.0305343511450382
-0.3646417236328125,1.4504837036132814,1.0882369995117187,-0.4198473282442748,-0.09923664122137404,1.4961832061068703
-0.21884490966796877,1.0678793334960939,1.281036071777344,-0.42748091603053434,0.03816793893129771,1.381679389312977
0.9253756713867188,0.49367340087890627,1.3223501586914064,0.24427480916030533,0.0,0.9083969465648855
2.0818707275390627,0.310155029296875,1.349294128417969,0.2900763358778626,0.1297709923664122,0.37404580152671757
1.9678079223632814,-0.35057098388671876,1.64537841796875,0.16030534351145037,-0.6870229007633587,-0.08396946564885496
0.7397616577148438,-1.4271322631835939,1.1238629150390627,0.11450381679389313,-0.4961832061068702,-1.732824427480916
0.7397616577148438,-1.4271322631835939,1.1238629150390627,0.11450381679389313,-0.4961832061068702,-1.732824427480916
0.7397616577148438,-1.4271322631835939,1.1238629150390627,0.11450381679389313,-0.4961832061068702,-1.732824427480916
0.7397616577148438,-1.4271322631835939,1.1238629150390627,0.11450381679389313,-0.4961832061068702,-1.732824427480916
0.7397616577148438,-1.4271322631835939,1.1238629150390627,0.11450381679389313,-0.4961832061068702,-1.732824427480916
1.0271640014648438,1.6956738281250001,-0.1095721435546875,-1.3740458015267174,-0.13740458015267176,0.7938931297709924
0.3688330078125,0.38290374755859374,0.314945068359375,0.3893129770992366,-0.6030534351145038,1.4885496183206106
0.8858578491210938,0.05119354248046875,0.3514691162109375,-0.030534351145038167,0.25190839694656486,1.2748091603053435
1.9983444213867188,-0.7430548095703126,1.1469149780273438,0.25190839694656486,0.1450381679389313,0.6946564885496183
1.7118402099609376,-0.1826202392578125,1.0307565307617188,-0.04580152671755725,-0.0916030534351145,0.7709923664122137
2.389930114746094,-0.7265890502929688,1.2100836181640626,0.2213740458015267,0.183206106870229,0.37404580152671757
1.7528549194335938,-0.6966513061523438,1.7327966308593752,0.5954198473282443,-0.25190839694656486,-0.06870229007633588
-0.239501953125,-1.2666659545898438,2.126178588867188,-1.6030534351145038,-2.427480916030534,-1.6564885496183206
-1.0702743530273438,-0.1886077880859375,0.8837622070312501,-1.6106870229007633,0.20610687022900762,-2.6030534351145036
-1.9351757812500001,1.00351318359375,2.3713687133789065,1.2061068702290076,0.26717557251908397,-1.5114503816793892
1.9001486206054687,0.137713623046875,0.6544390869140625,0.3282442748091603,-0.20610687022900762,0.10687022900763359
0.6035449218750001,0.48948211669921876,1.967508544921875,0.1450381679389313,0.061068702290076333,1.0763358778625953
-1.4247372436523438,1.152902526855469,2.10043212890625,-0.11450381679389313,-0.282442748091603,1.7022900763358777
0.7179071044921875,0.4152365112304688,0.9035211181640626,-0.23664122137404578,-0.20610687022900762,0.8702290076335878
1.670526123046875,0.7720944213867188,1.201102294921875,0.007633587786259542,0.007633587786259542,0.5190839694656488
2.0902532958984374,0.7565267944335938,1.4289285278320314,-0.09923664122137404,0.0,0.5343511450381679
2.1968316650390625,0.36553985595703126,1.488504638671875,-0.030534351145038167,0.16793893129770993,0.6030534351145038
0.4340972900390625,-1.8920654296875001,1.3810281372070312,0.8549618320610687,-1.16793893129771,-1.7709923664122136
-0.9598040771484375,-0.7212002563476563,-0.4912783813476563,-4.221374045801527,1.6793893129770991,-2.3435114503816794
0.61552001953125,3.50630859375,2.0636087036132813,-0.6412213740458015,-0.3969465648854962,0.19083969465648853
2.4468118286132814,0.14100677490234376,1.0020162963867187,-0.7022900763358778,0.03816793893129771,-0.17557251908396945
1.0870394897460938,2.409090270996094,-0.40805145263671877,-1.1068702290076335,-0.38167938931297707,0.45038167938931295
0.25656646728515625,1.7597406005859375,-0.983155517578125,-0.47328244274809156,-0.06870229007633588,1.6870229007633588
-0.7556286621093751,0.48648834228515625,-0.35715728759765625,-0.29770992366412213,0.34351145038167935,2.16793893129771
0.2077679443359375,-0.6463558959960938,0.8379574584960938,-0.5114503816793893,0.2595419847328244,1.4732824427480915
1.8651214599609376,-0.46882507324218753,1.0535092163085937,-0.07633587786259542,0.007633587786259542,0.6717557251908397
2.0414547729492187,-0.664617919921875,1.1391311645507813,0.1984732824427481,-0.11450381679389313,0.48854961832061067
1.9085311889648438,-1.193917236328125,1.337618408203125,-0.3511450381679389,-0.3511450381679389,-0.21374045801526717
-0.4197271728515625,-1.447489929199219,1.9273919677734377,-0.41221374045801523,-1.2519083969465647,-2.1374045801526718
-1.32444580078125,0.6439608764648438,0.0032931518554687503,-2.5572519083969465,-0.5038167938931297,-2.969465648854962
-2.6964926147460937,0.24159759521484375,-0.4559518432617188,3.045801526717557,0.8778625954198473,-2.9541984732824424
2.0282821655273438,-0.159268798828125,1.0639874267578127,0.8931297709923663,0.34351145038167935,-0.030534351145038167
2.202220458984375,0.71611083984375,-0.061372375488281256,0.9007633587786259,-0.030534351145038167,-0.030534351145038167
-1.8803897094726563,0.8708889770507813,1.8432669067382814,-0.38167938931297707,0.46564885496183206,1.9923664122137403
-0.7074288940429688,0.3158432006835938,0.6613247680664063,-0.12213740458015267,-0.1984732824427481,1.4809160305343512
0.8888516235351563,0.0568817138671875,0.5179229736328125,0.366412213740458,0.11450381679389313,0.9923664122137404
1.8809884643554688,0.5655239868164063,0.7903564453125,0.007633587786259542,0.015267175572519083,0.549618320610687
2.441722412109375,0.5143304443359376,0.7906558227539063,-0.030534351145038167,0.20610687022900762,0.7022900763358778
1.8788928222656252,-0.8005352783203126,1.703757019042969,0.12213740458015267,-0.3282442748091603,-0.38167938931297707
-3.050955505371094,-0.6825805664062501,2.2671853637695314,-1.6717557251908397,0.4198473282442748,-2.916030534351145
0.38080810546875005,3.5042129516601563,2.779120788574219,-0.5114503816793893,0.29770992366412213,0.09923664122137404
1.3774356079101564,1.888472900390625,1.2660671997070314,-1.381679389312977,-0.5190839694656488,-0.47328244274809156
0.4981640625,2.70876708984375,-0.8577163696289063,-0.22900763358778625,-0.5114503816793893,0.6030534351145038
-1.7932708740234375,1.2463082885742187,-1.9821780395507813,-0.38167938931297707,0.22900763358778625,2.1374045801526718
-0.9586065673828126,-0.6268963623046875,0.5275030517578125,-0.1450381679389313,0.17557251908396945,1.984732824427481
-0.9586065673828126,-0.6268963623046875,0.5275030517578125,-0.1450381679389313,0.17557251908396945,1.984732824427481
1.8217117309570314,-0.8517288208007813,0.9792636108398438,0.1297709923664122,0.16793893129770993,1.0
1.8217117309570314,-0.8517288208007813,0.9792636108398438,0.1297709923664122,0.16793893129770993,1.0
1.8217117309570314,-0.8517288208007813,0.9792636108398438,0.1297709923664122,0.16793893129770993,1.0
1.8217117309570314,-0.8517288208007813,0.9792636108398438,0.1297709923664122,0.16793893129770993,1.0
-3.0770013427734377,-0.11645782470703125,0.88855224609375,-2.015267175572519,0.282442748091603,-3.2442748091603053
-0.8158035278320312,4.559817810058594,1.4235397338867188,-0.7404580152671756,0.33587786259541985,-1.0381679389312977
1.618733825683594,0.8388555908203126,1.25259521484375,1.816793893129771,0.33587786259541985,0.13740458015267176
2.1540206909179687,0.7229965209960938,-0.27692413330078125,2.145038167938931,0.21374045801526717,0.2900763358778626
1.1241622924804688,0.7942483520507813,0.4640350341796875,0.35877862595419846,0.9007633587786259,1.015267175572519
-1.1993060302734375,1.1618838500976563,1.8432669067382814,-0.13740458015267176,0.7251908396946565,1.83206106870229
-2.4902215576171876,1.1382330322265626,1.2690609741210939,-0.4809160305343511,0.4427480916030534,2.1908396946564883
-0.47331573486328127,0.3918850708007813,0.5239105224609375,-0.3511450381679389,-0.03816793893129771,1.3740458015267174
0.6218069458007813,0.4409829711914063,0.43230102539062504,0.07633587786259542,0.10687022900763359,0.8702290076335878
1.9258950805664063,0.32781829833984377,0.9304650878906251,-0.08396946564885496,-0.04580152671755725,0.5267175572519084
2.3713687133789065,0.09789642333984376,1.2792398071289064,-0.04580152671755725,-0.12213740458015267,0.41221374045801523
1.749561767578125,-0.7595205688476563,1.3178594970703126,0.2748091603053435,-0.37404580152671757,-0.5954198473282443
0.70892578125,-1.3804293823242189,1.5905923461914064,0.06870229007633588,-0.9236641221374046,-1.4122137404580153
-1.8543438720703127,-1.6956738281250001,2.0677999877929687,-0.25190839694656486,1.9465648854961832,-2.3587786259541983
-1.5043716430664062,3.2823742675781253,1.3534854125976563,0.7633587786259541,1.3435114503816794,-1.0610687022900762
1.4331198120117188,0.8229885864257813,0.7679031372070313,-0.07633587786259542,-1.5419847328244274,0.26717557251908397
1.1549981689453126,1.1394305419921875,-1.4801220703125,-0.1984732824427481,-0.6717557251908397,1.099236641221374
0.38080810546875005,1.4124627685546876,-2.3740631103515626,-1.0381679389312977,0.549618320610687,1.3511450381679388
-1.7908758544921877,1.2085867309570313,-1.0106982421875002,-0.5954198473282443,1.0,2.0
-1.270557861328125,-0.846639404296875,0.7664062500000001,-0.6106870229007634,0.6564885496183206,1.916030534351145
0.5230123901367187,-1.4145584106445312,0.9098080444335938,-0.17557251908396945,0.35877862595419846,1.3511450381679388
1.3882131958007813,-1.2487033081054688,1.0148895263671875,-0.07633587786259542,0.3282442748091603,0.8396946564885496
1.93278076171875,-0.9466314697265625,1.6822018432617187,0.3511450381679389,-0.09923664122137404,0.3893129770992366
1.658551025390625,-0.8999285888671875,1.819915466308594,0.33587786259541985,-0.24427480916030533,0.5038167938931297
1.2214599609375,-1.6441809082031251,1.8363812255859375,-0.564885496183206,-0.7099236641221374,-0.6946564885496183
-1.4088702392578125,-1.8423687744140627,1.107696533203125,-0.24427480916030533,-1.2061068702290076,-3.045801526717557
-1.9157162475585938,0.7337741088867188,0.9415420532226563,-1.5114503816793892,-0.6412213740458015,-2.633587786259542
-2.3776556396484376,0.5945635986328125,1.0280621337890625,1.3129770992366412,1.2748091603053435,-2.4427480916030535
1.2244537353515625,2.4231610107421875,0.44876678466796877,0.5267175572519084,0.13740458015267176,-0.26717557251908397
2.3043081665039065,0.40236328125000004,0.7059320068359375,0.6641221374045801,0.0916030534351145,-0.1984732824427481
2.274969177246094,0.5870791625976562,0.2760260009765625,0.3129770992366412,-0.16030534351145037,0.23664122137404578
1.2040960693359375,0.7427554321289063,1.1379336547851564,0.6030534351145038,0.20610687022900762,1.1068702290076335
-0.5116360473632813,0.24459136962890626,2.0088226318359377,-0.6183206106870229,0.007633587786259542,1.4732824427480915
-0.680185546875,0.040415954589843754,1.6696279907226563,0.061068702290076333,-0.24427480916030533,1.3282442748091603
-0.76880126953125,0.9505233764648438,0.44876678466796877,-0.3053435114503817,-0.19083969465648853,1.5572519083969465
0.33709899902343754,0.4667294311523438,0.3448828125,-0.38167938931297707,0.030534351145038167,1.213740458015267
1.2882211303710938,0.6855743408203125,0.7831713867187501,-0.15267175572519084,0.1297709923664122,0.7862595419847328
1.7753082275390626,0.8562194824218751,0.8175997924804688,-0.13740458015267176,0.16030534351145037,0.648854961832061
2.1671932983398436,0.398770751953125,1.2989987182617189,-0.03816793893129771,0.10687022900763359,0.5954198473282443
1.7244140625000002,-0.7466473388671876,1.7929714965820314,0.3129770992366412,-0.549618320610687,-0.7022900763358778
-2.0504360961914063,-0.4577481079101563,1.05141357421875,-1.816793893129771,-1.3206106870229006,-3.030534351145038
-2.5635690307617187,0.6936575317382813,2.2552102661132816,-0.8702290076335878,0.0,-2.5725190839694654
-1.3873150634765625,2.998265075683594,2.219883728027344,-0.5343511450381679,-0.3129770992366412,-1.3893129770992365
2.1225860595703128,1.313668212890625,0.6735992431640625,-1.534351145038168,0.07633587786259542,-0.3129770992366412
1.1876303100585939,1.8265017700195314,0.4834945678710938,-0.45038167938931295,-0.16793893129770993,0.34351145038167935
1.0759625244140625,1.5432907104492188,-2.1968316650390625,-1.0916030534351144,0.11450381679389313,1.0534351145038168
-0.662222900390625,1.8142272949218752,-1.4705419921875,-0.5038167938931297,0.7862595419847328,1.6564885496183206
-1.5402969360351564,0.7131170654296876,-0.39008880615234376,-0.7251908396946565,0.8625954198473282,1.8854961832061068
1.0385403442382812,-0.8957373046875,0.7984396362304688,-0.1297709923664122,0.3129770992366412,1.3587786259541985
1.6178356933593752,-1.1490106201171875,0.9056167602539062,-0.15267175572519084,0.2748091603053435,0.8625954198473282
1.9681072998046876,-0.8050259399414063,1.4208453369140626,-0.12213740458015267,-0.15267175572519084,0.21374045801526717
1.5708334350585937,-0.9442364501953125,1.2783416748046876,0.2748091603053435,-0.2900763358778626,-0.15267175572519084
0.7637118530273438,-1.9851718139648438,1.7142352294921877,0.6106870229007634,-1.3129770992366412,-0.9083969465648855
-2.442021789550781,-0.8026309204101563,0.75922119140625,-0.8702290076335878,-2.0763358778625953,-3.030534351145038
-1.610650634765625,1.5079641723632813,1.0211764526367189,-1.1908396946564885,-0.6717557251908397,-2.0381679389312977
-2.7940896606445316,1.167572021484375,1.6974700927734376,1.450381679389313,-0.09923664122137404,-2.259541984732824
1.289718017578125,0.32901580810546877,0.19639160156250002,1.0,0.29770992366412213,-0.06870229007633588
2.0040325927734375,-0.21615051269531252,-0.27991790771484376,0.3053435114503817,-0.6717557251908397,-0.5725190839694656
1.3912069702148437,0.8397537231445313,0.5607339477539063,0.6412213740458015,0.6259541984732824,0.7709923664122137
0.032931518554687504,1.1008108520507813,2.4147784423828127,-0.007633587786259542,0.5419847328244275,1.2671755725190839
-2.1357586669921877,1.6076568603515626,2.1145028686523437,0.15267175572519084,0.3511450381679389,2.0839694656488548
-2.1357586669921877,1.6076568603515626,2.1145028686523437,0.15267175572519084,0.3511450381679389,2.0839694656488548
-2.1357586669921877,1.6076568603515626,2.1145028686523437,0.15267175572519084,0.3511450381679389,2.0839694656488548
-2.1357586669921877,1.6076568603515626,2.1145028686523437,0.15267175572519084,0.3511450381679389,2.0839694656488548
-2.1357586669921877,1.6076568603515626,2.1145028686523437,0.15267175572519084,0.3511450381679389,2.0839694656488548
2.3734643554687502,-0.13501922607421876,1.229842529296875,0.1984732824427481,-0.2213740458015267,0.04580152671755725
2.3734643554687502,-0.13501922607421876,1.229842529296875,0.1984732824427481,-0.2213740458015267,0.04580152671755725
2.3734643554687502,-0.13501922607421876,1.229842529296875,0.1984732824427481,-0.2213740458015267,0.04580152671755725
2.3734643554687502,-0.13501922607421876,1.229842529296875,0.1984732824427481,-0.2213740458015267,0.04580152671755725
-1.1837384033203127,1.6387921142578126,2.429148559570313,-2.5572519083969465,0.20610687022900762,-1.4885496183206106
-0.1431024169921875,1.0786569213867188,2.8886929321289063,-1.3282442748091603,0.6106870229007634,-0.7557251908396946
1.7932708740234375,1.3451028442382813,0.33410522460937503,-1.3740458015267174,-0.007633587786259542,-0.2748091603053435
1.3298345947265626,1.7339941406250001,-0.03861968994140625,-0.5801526717557252,0.06870229007633588,0.33587786259541985
1.182840270996094,2.6240432739257815,-0.959205322265625,-0.9694656488549618,0.061068702290076333,0.916030534351145
-0.22243743896484375,1.99984130859375,-0.9250762939453125,-0.8244274809160305,0.46564885496183206,1.66412213740458
-1.5250286865234375,1.3391152954101564,-0.8271798706054688,-1.0916030534351144,0.46564885496183206,2.198473282442748
-0.164058837890625,-0.8939410400390625,0.7026388549804687,-0.6183206106870229,0.15267175572519084,1.8473282442748091
0.7598199462890626,-1.531614990234375,1.08973388671875,-0.015267175572519083,-0.06870229007633588,1.2519083969465647
1.4807208251953126,-0.8900491333007813,1.4079721069335938,0.10687022900763359,0.015267175572519083,0.8167938931297709
1.380728759765625,-0.6918612670898437,1.4735357666015625,0.16793893129770993,0.0,0.8778625954198473
1.6211288452148438,-0.9277706909179688,1.69327880859375,0.007633587786259542,-0.1984732824427481,0.5954198473282443
1.7672250366210938,-1.5142510986328126,2.091750183105469,-0.5267175572519084,-0.38167938931297707,-0.6183206106870229
0.17274078369140625,-2.02858154296875,2.3809487915039065,-0.8167938931297709,-1.129770992366412,-2.3206106870229006
-3.1728021240234376,-1.8836828613281251,1.7277072143554688,-0.6946564885496183,-2.030534351145038,-3.5114503816793894
-2.0642074584960937,1.3642630004882814,0.7930508422851563,-2.2900763358778624,0.030534351145038167,-2.931297709923664
-0.6523434448242188,3.6994070434570316,1.6360977172851563,0.34351145038167935,2.236641221374046,-0.24427480916030533
1.5247293090820313,0.6804849243164063,2.2270687866210936,1.015267175572519,-0.19083969465648853,1.4351145038167938
1.881287841796875,-0.3802093505859375,0.6942562866210937,0.38167938931297707,-0.7175572519083969,0.5114503816793893
1.5600558471679689,-0.97716796875,0.849034423828125,0.7480916030534351,-0.17557251908396945,0.3893129770992366
0.9262738037109376,-0.12334350585937501,2.1297711181640624,0.8702290076335878,-0.030534351145038167,0.7862595419847328
-0.3526666259765625,0.8622070312500001,1.651365966796875,0.366412213740458,-0.23664122137404578,1.3511450381679388
-1.4986834716796875,1.7094451904296877,0.7517367553710937,-0.3969465648854962,-0.07633587786259542,1.8244274809160304
-0.7553292846679688,0.6741979980468751,0.36853363037109377,-0.3282442748091603,0.015267175572519083,1.7786259541984732
0.42691223144531254,0.513731689453125,0.45565246582031255,0.1984732824427481,0.183206106870229,1.3511450381679388
1.2367282104492188,0.425115966796875,0.9624984741210938,0.06870229007633588,0.282442748091603,0.9236641221374046
1.8705102539062501,0.2559677124023438,1.1720626831054688,0.34351145038167935,0.16793893129770993,0.4580152671755725
2.249222717285156,-0.099393310546875,1.3939013671875,0.21374045801526717,-0.09923664122137404,0.0916030534351145
1.7860858154296877,-1.0942245483398438,1.6450790405273439,-0.13740458015267176,-0.8854961832061068,-1.1908396946564885
-0.5742059326171876,-1.5253280639648439,1.0490185546875002,0.1984732824427481,-1.4274809160305344,-2.236641221374046
-1.1969110107421876,0.8403524780273438,0.9136999511718751,-2.0610687022900764,-0.22900763358778625,-2.297709923664122
-1.6708255004882813,1.3912069702148437,2.6887088012695313,0.0916030534351145,0.6106870229007634,-1.5954198473282442
1.3274395751953125,1.4244378662109376,1.2115805053710937,0.3282442748091603,0.2748091603053435,0.366412213740458
2.0713925170898437,0.1215472412109375,0.47720764160156254,-0.8015267175572519,0.11450381679389313,-0.022900763358778626
1.7375866699218752,0.9624984741210938,0.15837066650390627,-1.0687022900763359,0.19083969465648853,-0.1450381679389313
1.3732443237304688,2.0243902587890625,-1.466949462890625,-0.9541984732824427,-0.2900763358778626,1.0076335877862594
0.0772393798828125,1.4217434692382813,-1.7528549194335938,-0.8015267175572519,0.5038167938931297,1.5877862595419847
-0.5783972167968751,0.30326934814453127,-0.6759942626953125,-0.4580152671755725,0.4961832061068702,1.7709923664122136
0.3799099731445313,-0.111368408203125,0.4604425048828125,-0.2900763358778626,0.6030534351145038,1.534351145038168
1.53999755859375,-0.6667135620117188,0.6484515380859376,-0.42748091603053434,0.48854961832061067,0.8931297709923663
2.1073178100585936,-0.8259823608398438,1.1235635375976563,0.04580152671755725,0.26717557251908397,0.564885496183206
2.308499450683594,-0.1071771240234375,1.1672726440429688,-0.030534351145038167,0.16793893129770993,0.47328244274809156
2.168690185546875,0.055384826660156254,1.1927197265625,0.03816793893129771,0.10687022900763359,0.6793893129770993
2.0444485473632814,-0.28500732421875,1.1798464965820312,-0.015267175572519083,0.07633587786259542,0.7099236641221374
2.022294616699219,-1.0822494506835938,1.66693359375,0.9389312977099237,0.1984732824427481,0.4351145038167939
1.4085708618164063,-1.120869140625,2.3273602294921876,0.07633587786259542,-0.5954198473282443,-0.3129770992366412
-0.465831298828125,-1.2618759155273438,2.2168899536132813,-0.7709923664122137,-2.198473282442748,-1.1755725190839694
-2.4306454467773437,-0.5059478759765625,0.6682104492187501,-2.427480916030534,-1.0916030534351144,-3.3893129770992365
-2.6297314453125002,1.8735040283203126,1.8390756225585938,1.2748091603053435,0.5267175572519084,-2.748091603053435
1.1993060302734375,2.5536895751953126,0.4532574462890625,1.2442748091603053,0.24427480916030533,-0.061068702290076333
2.1297711181640624,0.10597961425781251,0.9693841552734376,0.9312977099236641,-0.45038167938931295,-0.1450381679389313
-1.23822509765625,1.561552734375,2.049537963867188,0.12213740458015267,0.5114503816793893,1.8549618320610686
-1.167572021484375,0.6442602539062501,0.9310638427734376,-0.4351145038167939,0.5877862595419847,1.6946564885496183
-0.12334350585937501,0.5379812622070312,1.24301513671875,-0.05343511450381679,0.3129770992366412,1.2290076335877862
0.8505313110351563,0.39817199707031253,0.88855224609375,0.6870229007633587,0.20610687022900762,0.7938931297709924
1.7774038696289063,0.28740234375,0.6050418090820313,-0.3282442748091603,0.22900763358778625,0.3969465648854962
2.1848565673828126,0.26075775146484376,0.9463320922851562,-0.12213740458015267,0.19083969465648853,0.38167938931297707
2.1848565673828126,-0.0305364990234375,1.2906161499023439,0.1450381679389313,0.015267175572519083,0.45038167938931295
1.6301101684570314,-0.8487350463867188,1.5609539794921876,0.16030534351145037,-0.5877862595419847,-0.3511450381679389
0.6083349609375001,-1.6582516479492189,1.8851797485351562,0.0916030534351145,-1.2519083969465647,-1.4580152671755724
-0.9942324829101563,-0.41044647216796876,0.7397616577148438,-0.7480916030534351,-1.2519083969465647,-2.66412213740458
-1.0379415893554689,0.9523196411132813,1.2091854858398439,-1.3358778625954197,0.35877862595419846,-2.145038167938931
-0.6511459350585938,2.52195556640625,2.060614929199219,-0.23664122137404578,0.0916030534351145,-1.015267175572519
1.5549664306640625,0.9562115478515626,1.0834469604492187,-0.23664122137404578,-0.022900763358778626,0.32061068702290074
1.5549664306640625,0.9562115478515626,1.0834469604492187,-0.23664122137404578,-0.022900763358778626,0.32061068702290074
1.1023077392578124,1.1032058715820312,-0.271834716796875,-1.2671755725190839,-0.03816793893129771,0.35877862595419846
1.1023077392578124,1.1032058715820312,-0.271834716796875,-1.2671755725190839,-0.03816793893129771,0.35877862595419846
1.1023077392578124,1.1032058715820312,-0.271834716796875,-1.2671755725190839,-0.03816793893129771,0.35877862595419846
1.1023077392578124,1.1032058715820312,-0.271834716796875,-1.2671755725190839,-0.03816793893129771,0.35877862595419846
1.28373046875,-1.081351318359375,0.7828720092773438,0.11450381679389313,0.2900763358778626,1.1603053435114503
1.28373046875,-1.081351318359375,0.7828720092773438,0.11450381679389313,0.2900763358778626,1.1603053435114503
1.28373046875,-1.081351318359375,0.7828720092773438,0.11450381679389313,0.2900763358778626,1.1603053435114503
2.279459838867188,-1.1448193359375,1.4187496948242189,-0.022900763358778626,0.07633587786259542,0.29770992366412213
-0.8056246948242188,-1.7633331298828125,1.2630734252929687,-0.26717557251908397,-1.8091603053435115,-2.213740458015267
-1.9474502563476563,0.47331573486328127,0.45804748535156253,-2.618320610687023,-1.213740458015267,-2.877862595419847
-2.4647744750976566,0.27063720703125,1.9258950805664063,-0.6259541984732824,1.0229007633587786,-2.5038167938931295
-2.3812481689453127,2.3860382080078124,0.9193881225585938,2.183206106870229,0.05343511450381679,-1.9236641221374045
1.7247134399414064,0.006586303710937501,0.7277865600585938,1.045801526717557,0.08396946564885496,0.09923664122137404
2.2537133789062502,-0.1898052978515625,-0.0059875488281250005,0.5877862595419847,-0.45038167938931295,-0.10687022900763359
1.450184326171875,0.5412744140625,0.882564697265625,0.7786259541984732,0.2595419847328244,0.732824427480916
-0.6975494384765626,1.2986993408203125,2.1154010009765627,-0.10687022900763359,0.5725190839694656,1.5267175572519083
-1.4744338989257812,1.3043875122070314,1.1277548217773439,-0.6259541984732824,0.3129770992366412,1.7404580152671756
-0.8529263305664063,0.4451742553710938,0.7661068725585938,-0.5190839694656488,0.09923664122137404,1.5954198473282442
1.1834390258789063,0.60114990234375,1.0089019775390626,-0.16793893129770993,-0.183206106870229,0.7480916030534351
2.3153851318359377,0.5954617309570313,0.9490264892578125,0.29770992366412213,0.12213740458015267,0.7480916030534351
2.4237597656250003,-0.06945556640625,1.2385244750976563,0.564885496183206,0.41221374045801523,0.5267175572519084
1.8953585815429688,-1.0029144287109375,2.0288809204101566,0.29770992366412213,-0.37404580152671757,-0.5267175572519084
0.429906005859375,-1.3522879028320314,1.695374450683594,0.08396946564885496,-1.4045801526717556,-1.381679389312977
-1.6507672119140626,-0.8277786254882813,1.0660830688476564,-1.66412213740458,-1.5190839694656488,-3.091603053435114
-1.74357421875,0.4831951904296875,1.371148681640625,-2.3587786259541983,1.015267175572519,-2.5267175572519083
0.5825885009765626,2.152224426269531,1.977986755371094,0.6564885496183206,0.16793893129770993,0.15267175572519084
1.7103433227539064,0.7011419677734375,0.6792874145507812,-0.9007633587786259,-0.06870229007633588,0.2213740458015267
1.452579345703125,1.6043637084960938,0.1071771240234375,-0.732824427480916,-0.11450381679389313,0.40458015267175573
1.3630654907226563,1.9657122802734377,-0.8475375366210938,-0.7709923664122137,-0.19083969465648853,0.8778625954198473
-1.071771240234375,1.6058605957031251,-1.0469229125976562,-0.32061068702290074,0.4427480916030534,1.9389312977099236
-1.4271322631835939,0.6481521606445313,0.18651214599609375,-0.06870229007633588,0.6717557251908397,2.045801526717557
-0.35206787109375004,-0.23561004638671876,1.0005194091796876,-0.13740458015267176,0.732824427480916,1.7099236641221374
0.5813909912109375,-0.9430389404296875,1.3106744384765625,-0.13740458015267176,0.3969465648854962,1.381679389312977
1.4600637817382813,-1.0400372314453126,1.2352313232421877,-0.1984732824427481,0.10687022900763359,0.8625954198473282
1.944755859375,-0.6592291259765626,1.055006103515625,-0.12213740458015267,0.08396946564885496,0.549618320610687
1.8390756225585938,-1.1136840820312501,1.3346246337890626,0.35877862595419846,-0.007633587786259542,0.5419847328244275
1.4498849487304688,-1.445394287109375,1.7606387329101563,-0.06870229007633588,-0.564885496183206,-0.4198473282442748
0.1197509765625,-1.8504519653320313,1.1178753662109375,0.3282442748091603,-1.213740458015267,-1.7404580152671756
-1.0181826782226564,-0.39158569335937504,0.3511697387695313,-0.8778625954198473,-1.732824427480916,-2.2900763358778624
-0.96998291015625,1.5067666625976563,0.6523434448242188,-2.5038167938931295,-0.7099236641221374,-2.595419847328244
-0.25267456054687504,4.067042541503906,1.4465917968750002,-0.015267175572519083,0.0,-0.5419847328244275
1.956431579589844,0.28889923095703124,0.8262817382812501,0.7557251908396946,0.06870229007633588,0.13740458015267176
2.1749771118164065,-0.3496728515625,0.8774752807617188,0.47328244274809156,0.015267175572519083,-0.12213740458015267
1.735191650390625,-0.0293389892578125,1.102906494140625,-0.2900763358778626,0.061068702290076333,0.05343511450381679
1.684896240234375,-0.748443603515625,0.7313790893554688,-0.6412213740458015,0.11450381679389313,0.0916030534351145
1.5115567016601563,-0.41882904052734377,0.319735107421875,0.12213740458015267,-0.04580152671755725,0.015267175572519083
1.3968951416015625,-0.4017645263671875,0.2859054565429688,0.2213740458015267,0.007633587786259542,0.030534351145038167
1.2687615966796875,-0.296982421875,0.1143621826171875,-0.282442748091603,-0.022900763358778626,0.0
1.1705657958984375,-0.1478924560546875,0.036524047851562505,-0.29770992366412213,0.015267175572519083,-0.007633587786259542
1.0364447021484375,0.0053887939453125,-0.037122802734375,0.022900763358778626,0.007633587786259542,0.007633587786259542
0.9547146606445313,0.07514373779296875,-0.06735992431640625,0.10687022900763359,-0.022900763358778626,0.030534351145038167
0.8984317016601563,0.01916015625,-0.0544866943359375,-0.022900763358778626,-0.03816793893129771,0.022900763358778626
0.7747888183593751,0.0413140869140625,-0.13501922607421876,-0.030534351145038167,0.0,0.015267175572519083
0.7702981567382813,0.02305206298828125,-0.21615051269531252,0.030534351145038167,0.0,-0.015267175572519083
0.6580316162109375,0.06795867919921875,-0.1874102783203125,0.03816793893129771,-0.015267175572519083,0.0
0.55803955078125,0.0413140869140625,-0.19728973388671875,-0.022900763358778626,-0.015267175572519083,-0.015267175572519083
0.5143304443359376,0.06197113037109375,-0.23141876220703125,-0.022900763358778626,-0.015267175572519083,-0.015267175572519083
0.46613067626953125,0.08412506103515625,-0.259859619140625,-0.022900763358778626,-0.015267175572519083,0.0
0.4164340209960938,0.10597961425781251,-0.25147705078125,-0.022900763358778626,-0.007633587786259542,0.007633587786259542
0.34907409667968753,0.10029144287109376,-0.23321502685546877,-0.022900763358778626,-0.022900763358778626,0.007633587786259542
0.2667453002929688,0.1676513671875,-0.26584716796875,-0.03816793893129771,-0.015267175572519083,-0.022900763358778626
0.29219238281250004,0.21106109619140626,-0.2712359619140625,-0.10687022900763359,0.0,0.0
0.21136047363281252,0.22842498779296877,-0.31853759765625,-0.06870229007633588,-0.015267175572519083,-0.015267175572519083
0.19399658203125,0.23740631103515628,-0.2805166625976563,-0.03816793893129771,-0.030534351145038167,-0.007633587786259542
0.21465362548828126,0.15238311767578125,-0.288599853515625,-0.030534351145038167,-0.022900763358778626,-0.007633587786259542
0.17214202880859375,0.25387207031250003,-0.28889923095703124,0.05343511450381679,0.03816793893129771,-0.04580152671755725
0.09819580078125001,0.24339385986328127,-0.2847079467773438,-0.10687022900763359,-0.04580152671755725,0.015267175572519083
0.16914825439453127,0.113763427734375,-0.2736309814453125,0.05343511450381679,-0.007633587786259542,-0.015267175572519083
0.1119671630859375,0.257464599609375,-0.31404693603515627,-0.007633587786259542,-0.015267175572519083,-0.022900763358778626
0.1119671630859375,0.257464599609375,-0.31404693603515627,-0.007633587786259542,-0.015267175572519083,-0.022900763358778626
0.1119671630859375,0.257464599609375,-0.31404693603515627,-0.007633587786259542,-0.015267175572519083,-0.022900763358778626
0.1119671630859375,0.257464599609375,-0.31404693603515627,-0.007633587786259542,-0.015267175572519083,-0.022900763358778626
0.1119671630859375,0.257464599609375,-0.31404693603515627,-0.007633587786259542,-0.015267175572519083,-0.022900763358778626
0.00209564208984375,0.13262420654296875,-0.27722351074218754,0.015267175572519083,-0.015267175572519083,-0.007633587786259542
-0.0197589111328125,0.20207977294921875,-0.28800109863281254,-0.0916030534351145,-0.015267175572519083,0.0
0.0041912841796875,0.16256195068359375,-0.28800109863281254,-0.007633587786259542,0.007633587786259542,-0.007633587786259542
-0.037122802734375,0.25656646728515625,-0.27572662353515626,-0.022900763358778626,-0.015267175572519083,-0.007633587786259542