accel.x,accel.y,accel.z,gyro.x,gyro.y,gyro.z
0.24519012451171876,2.417772216796875,-0.96998291015625,-1.015267175572519,0.282442748091603,1.1450381679389312
2.377955017089844,2.4040008544921876,1.4597644042968752,-0.3053435114503817,-0.16030534351145037,-0.007633587786259542
1.8696121215820314,2.1177960205078126,2.053729248046875,-0.19083969465648853,-0.1297709923664122,0.06870229007633588
1.4543756103515626,1.9109262084960938,2.066303100585938,-0.21374045801526717,-0.12213740458015267,-0.11450381679389313
1.5244299316406251,1.572030944824219,1.7163308715820313,-0.03816793893129771,-0.183206106870229,0.030534351145038167
1.3804293823242189,1.4232403564453127,1.9752923583984376,0.022900763358778626,-0.2900763358778626,-0.022900763358778626
1.466949462890625,1.2576846313476564,1.7660275268554688,0.183206106870229,-0.1297709923664122,0.06870229007633588
1.0675799560546875,1.1813433837890626,2.015408935546875,-0.0916030534351145,-0.03816793893129771,-0.06870229007633588
1.4226416015625,0.7448510742187501,1.9007473754882813,-0.030534351145038167,-0.06870229007633588,-0.022900763358778626
1.4319223022460938,0.8211923217773438,1.9959494018554689,0.015267175572519083,0.04580152671755725,-0.015267175572519083
1.4726376342773437,1.0340496826171877,2.095941467285156,-0.06870229007633588,0.022900763358778626,0.061068702290076333
0.8711883544921876,0.5119354248046876,1.8663189697265625,-0.06870229007633588,-0.07633587786259542,0.07633587786259542
0.8340655517578125,0.35775604248046877,1.7627343750000002,0.1984732824427481,-0.19083969465648853,0.05343511450381679
0.8930429077148438,0.45535308837890626,1.945953369140625,0.2748091603053435,-0.2213740458015267,-0.1450381679389313
1.2412188720703126,0.9187893676757813,2.432142333984375,-0.11450381679389313,-0.06870229007633588,-0.17557251908396945
1.2412188720703126,0.9187893676757813,2.432142333984375,-0.11450381679389313,-0.06870229007633588,-0.17557251908396945
1.2412188720703126,0.9187893676757813,2.432142333984375,-0.11450381679389313,-0.06870229007633588,-0.17557251908396945
1.2412188720703126,0.9187893676757813,2.432142333984375,-0.11450381679389313,-0.06870229007633588,-0.17557251908396945
1.2412188720703126,0.9187893676757813,2.432142333984375,-0.11450381679389313,-0.06870229007633588,-0.17557251908396945
1.2412188720703126,0.9187893676757813,2.432142333984375,-0.11450381679389313,-0.06870229007633588,-0.17557251908396945
1.88009033203125,-1.879790954589844,-0.7119195556640625,0.7709923664122137,0.45038167938931295,-1.198473282442748
3.553909606933594,-0.106578369140625,-2.072889404296875,2.091603053435114,0.9847328244274809,-0.6412213740458015
-3.1069390869140627,2.0309765625000002,-3.5883380126953126,-1.3740458015267174,1.2748091603053435,-1.3740458015267174
-3.6934194946289063,-1.005908203125,-2.6168582153320314,-2.16030534351145,1.0305343511450382,1.4045801526717556
0.7655081176757813,-2.774630126953125,0.06795867919921875,-0.37404580152671757,-0.5267175572519084,0.33587786259541985
1.0301577758789062,-2.937192077636719,0.09370513916015626,0.7022900763358778,-0.6793893129770993,-0.9236641221374046
-2.774330749511719,-0.18890716552734377,-0.530496826171875,1.2519083969465647,-1.7022900763358777,-1.045801526717557
-2.7141558837890627,2.3869363403320314,-1.0490185546875002,0.9618320610687022,-1.8931297709923662,-0.09923664122137404
1.2798385620117188,-1.0951226806640626,-1.7211209106445313,-1.198473282442748,-1.1603053435114503,0.34351145038167935
0.9226812744140626,-0.159268798828125,-1.0424322509765624,1.213740458015267,1.4045801526717556,-1.0
-3.256927185058594,2.3608905029296876,-2.9030630493164065,-2.282442748091603,2.5572519083969465,-1.5725190839694656
-2.4075933837890626,-0.9223818969726563,-1.4301260375976563,-1.916030534351145,1.083969465648855,0.7099236641221374
0.7328759765625,-1.97589111328125,-0.6532415771484376,0.08396946564885496,-0.47328244274809156,0.6564885496183206
-2.5240512084960938,-0.16256195068359375,-0.15896942138671877,0.6717557251908397,-1.4351145038167938,-1.5419847328244274
-1.4298266601562502,2.728526000976563,-0.7116201782226563,-0.007633587786259542,-1.618320610687023,0.06870229007633588
-0.012873229980468751,2.694097595214844,-1.4088702392578125,-0.7633587786259541,-0.9694656488549618,0.7251908396946565
0.02724334716796875,-0.30895751953125,-0.6472540283203125,-0.8778625954198473,-0.8702290076335878,1.1603053435114503
0.5981561279296875,-1.169667663574219,0.13202545166015625,-0.7251908396946565,-0.3969465648854962,0.7862595419847328
0.963995361328125,-0.3852987670898438,2.0908520507812502,0.12213740458015267,0.19083969465648853,0.061068702290076333
0.7337741088867188,1.0744656372070314,2.271376647949219,0.3282442748091603,-0.015267175572519083,0.03816793893129771
0.9672885131835938,0.9861492919921876,2.433040466308594,-0.022900763358778626,-0.183206106870229,0.05343511450381679
1.0056088256835938,0.6664141845703125,2.1609063720703126,-0.1297709923664122,-0.183206106870229,-0.007633587786259542
1.5881973266601563,0.5035528564453126,2.1034259033203124,0.0,0.04580152671755725,0.04580152671755725
1.3720468139648438,1.1142828369140625,2.0387603759765627,-0.19083969465648853,0.1297709923664122,0.2213740458015267
1.1870315551757813,0.940045166015625,1.8052459716796876,-0.20610687022900762,0.0916030534351145,0.17557251908396945
1.313668212890625,0.40775207519531254,1.9235000610351562,-0.06870229007633588,-0.09923664122137404,-0.030534351145038167
1.4295272827148438,0.62989013671875,2.3414309692382815,0.15267175572519084,-0.23664122137404578,-0.08396946564885496
1.5932867431640625,0.7963439941406251,2.173180847167969,-0.15267175572519084,-0.04580152671755725,-0.16030534351145037
1.440604248046875,0.4544549560546875,2.132764892578125,-0.19083969465648853,0.03816793893129771,-0.10687022900763359
1.34360595703125,-0.14938934326171877,1.4705419921875,0.07633587786259542,0.08396946564885496,-0.0916030534351145
1.3310321044921876,-0.2041754150390625,1.8133291625976564,0.4351145038167939,-0.030534351145038167,-0.2748091603053435
1.5061679077148438,1.0445278930664064,2.4599844360351564,0.08396946564885496,-0.061068702290076333,-0.1297709923664122
1.5525714111328126,0.8193960571289063,2.0698956298828124,-0.10687022900763359,-0.07633587786259542,-0.015267175572519083
1.2208612060546875,0.5703140258789062,1.8384768676757814,-0.04580152671755725,-0.06870229007633588,0.03816793893129771
0.9373507690429688,0.5269042968750001,2.182162170410156,-0.04580152671755725,0.0,-0.04580152671755725
1.0798544311523437,-0.97716796875,0.6816824340820313,0.2595419847328244,-0.33587786259541985,-0.4961832061068702
1.7759069824218752,-0.6316864013671876,-2.8946804809570312,3.6946564885496183,0.183206106870229,-0.20610687022900762
-3.0778994750976563,2.139949951171875,-4.175716552734375,-1.0305343511450382,3.2748091603053435,-2.3664122137404577
-3.669169921875,0.6385720825195312,-1.5364050292968752,-2.8931297709923665,2.229007633587786,0.16793893129770993
-0.09610015869140626,-1.2966036987304688,0.6460565185546875,-1.3206106870229006,0.34351145038167935,0.5419847328244275
1.1822415161132813,-1.7444723510742188,-0.23381378173828127,0.7022900763358778,-0.6412213740458015,0.15267175572519084
-0.7655081176757813,-2.1103115844726563,-0.0844244384765625,1.0305343511450382,-0.7404580152671756,-1.8473282442748091
-2.7428961181640625,2.731220397949219,-0.7798782348632813,1.3282442748091603,-1.564885496183206,-0.3969465648854962
-0.439486083984375,2.334844665527344,-0.8241860961914063,-0.5038167938931297,-2.33587786259542,0.46564885496183206
1.3642630004882814,-1.4642550659179687,-1.6564553833007813,-0.5114503816793893,-0.7175572519083969,0.16030534351145037
1.9004479980468751,-1.581910400390625,-1.2891192626953125,0.6793893129770993,0.2748091603053435,-0.10687022900763359
-3.0347891235351563,2.382445678710938,-1.1493099975585939,1.213740458015267,2.778625954198473,-0.42748091603053434
-2.3450234985351566,-0.49636779785156254,-0.1694476318359375,-2.312977099236641,1.6717557251908397,0.34351145038167935
0.7637118530273438,-1.2960049438476564,0.26884094238281253,-1.4198473282442747,0.061068702290076333,0.15267175572519084
1.124461669921875,-1.735191650390625,-0.30865814208984377,0.7938931297709924,-0.4198473282442748,-0.4961832061068702
-2.2240750122070314,1.5926879882812501,0.5325924682617188,1.099236641221374,-1.0229007633587786,-1.2748091603053435
-1.5861016845703126,2.488724670410156,0.310155029296875,1.2671755725190839,-1.6870229007633588,-0.17557251908396945
0.0520916748046875,1.6184344482421875,-0.9490264892578125,0.061068702290076333,-1.3511450381679388,0.564885496183206
0.32213012695312504,-0.0029937744140625003,-0.23980133056640626,-1.2061068702290076,-0.4961832061068702,0.6106870229007634
1.1226654052734375,-0.8008346557617188,0.4427792358398438,-0.6335877862595419,-0.26717557251908397,0.5267175572519084
1.294208679199219,-0.7834707641601563,1.0798544311523437,-0.10687022900763359,0.06870229007633588,0.38167938931297707
1.368753662109375,-0.34667907714843754,1.5175442504882812,0.4427480916030534,0.3282442748091603,0.282442748091603
1.368753662109375,-0.34667907714843754,1.5175442504882812,0.4427480916030534,0.3282442748091603,0.282442748091603
1.368753662109375,-0.34667907714843754,1.5175442504882812,0.4427480916030534,0.3282442748091603,0.282442748091603
1.368753662109375,-0.34667907714843754,1.5175442504882812,0.4427480916030534,0.3282442748091603,0.282442748091603
1.368753662109375,-0.34667907714843754,1.5175442504882812,0.4427480916030534,0.3282442748091603,0.282442748091603
1.5855029296875,1.2319381713867188,1.4816189575195313,0.030534351145038167,0.07633587786259542,0.2900763358778626
1.2981005859375,1.28612548828125,1.7860858154296877,-0.030534351145038167,0.007633587786259542,0.21374045801526717
1.4085708618164063,0.8178991699218751,1.70525390625,0.1297709923664122,-0.16793893129770993,-0.061068702290076333
1.6142431640625001,0.9505233764648438,1.7007632446289063,0.0916030534351145,-0.3129770992366412,-0.13740458015267176
2.1869522094726563,1.2163705444335937,1.892963562011719,0.03816793893129771,-0.061068702290076333,-0.1450381679389313
1.859732666015625,1.1546987915039064,1.7295034790039063,-0.34351145038167935,-0.015267175572519083,-0.04580152671755725
1.5022760009765626,-0.11346405029296876,1.3100756835937502,-0.16793893129770993,0.08396946564885496,-0.22900763358778625
1.227447509765625,0.17124389648437502,1.7235159301757814,0.25190839694656486,0.0916030534351145,-0.41221374045801523
1.40587646484375,1.5265255737304688,2.1543200683593753,-0.09923664122137404,-0.04580152671755725,-0.3511450381679389
1.4651531982421875,0.8996292114257813,1.6184344482421875,-0.183206106870229,-0.34351145038167935,-0.03816793893129771
1.3154644775390625,0.966390380859375,1.8154248046875001,-0.34351145038167935,0.04580152671755725,-0.12213740458015267
1.0017169189453126,0.4409829711914063,1.6603472900390626,0.030534351145038167,-0.20610687022900762,0.04580152671755725
2.109114074707031,-1.4771282958984375,-2.395917663574219,0.2900763358778626,1.8778625954198473,-1.3511450381679388
0.34398468017578127,1.859732666015625,-1.2696597290039062,0.5267175572519084,1.366412213740458,-0.23664122137404578
-2.0184027099609376,3.101250915527344,-1.5645465087890627,-1.9923664122137403,1.564885496183206,0.29770992366412213
-0.6882687377929688,-0.1287322998046875,-0.678988037109375,-1.1603053435114503,0.32061068702290074,1.1221374045801527
0.8870553588867188,-1.7321978759765626,-0.1886077880859375,-0.5725190839694656,-0.3893129770992366,0.7404580152671756
1.1825408935546875,-2.597398681640625,-0.16166381835937502,0.6870229007633587,-0.648854961832061,0.11450381679389313
-3.3629067993164066,1.5917898559570314,-2.1282742309570315,0.9694656488549618,-1.6259541984732824,-0.7480916030534351
0.9056167602539062,1.48730712890625,-1.5328125000000001,-0.42748091603053434,-1.3053435114503815,-0.03816793893129771
1.9513421630859376,-0.08053253173828126,-0.3838018798828125,-0.38167938931297707,-1.2366412213740459,0.19083969465648853
2.525548095703125,-2.1513262939453126,-1.1987072753906252,0.366412213740458,-0.4351145038167939,0.47328244274809156
2.3297552490234374,-1.8818865966796876,-0.645457763671875,1.534351145038168,0.8244274809160305,0.0916030534351145
0.437091064453125,0.8178991699218751,-3.7122802734375,0.8931297709923663,2.229007633587786,-1.4198473282442747
-2.586321716308594,-1.7345928955078125,-2.1797671508789063,-2.16030534351145,1.7786259541984732,0.40458015267175573
1.7025595092773438,-1.7609381103515627,0.4293072509765625,-1.297709923664122,0.3969465648854962,-0.48854961832061067
2.1034259033203124,-0.3718267822265625,-0.650247802734375,0.38167938931297707,-0.38167938931297707,-0.11450381679389313
0.415535888671875,-1.593586120605469,-1.2669653320312502,1.6717557251908397,-0.07633587786259542,-1.4732824427480915
-2.3680755615234377,1.9845730590820314,-0.6903643798828125,1.8015267175572518,-1.1068702290076335,-0.0916030534351145
0.7319778442382813,0.41344024658203127,-1.7345928955078125,-0.7022900763358778,-1.1221374045801527,0.4351145038167939
1.36037109375,-0.6984475708007812,-0.5631289672851563,-0.7557251908396946,-1.0076335877862594,0.564885496183206
1.3121713256835938,-1.1954141235351563,1.0424322509765624,0.2748091603053435,0.015267175572519083,0.7938931297709924
1.3223501586914064,1.8273999023437502,2.002236328125,0.6870229007633587,0.03816793893129771,0.12213740458015267
1.0202783203125,2.1764739990234374,2.006427612304688,-0.3511450381679389,0.1297709923664122,-0.06870229007633588
1.2217593383789063,0.8637039184570313,1.5259268188476562,-0.29770992366412213,0.07633587786259542,-0.13740458015267176
1.505269775390625,0.6963519287109375,1.507365417480469,-0.22900763358778625,-0.04580152671755725,-0.061068702290076333
1.4861096191406251,0.9169931030273438,1.7839901733398438,-0.06870229007633588,-0.08396946564885496,0.0916030534351145
1.6067587280273439,1.3019924926757813,1.5875985717773438,-0.1297709923664122,0.05343511450381679,0.282442748091603
1.359173583984375,0.96998291015625,1.7962646484375,0.007633587786259542,-0.015267175572519083,0.1450381679389313
1.3864169311523438,1.0307565307617188,1.751657409667969,0.06870229007633588,-0.07633587786259542,-0.1450381679389313
1.5432907104492188,0.9792636108398438,1.7369879150390626,0.11450381679389313,-0.17557251908396945,-0.23664122137404578
1.5130535888671877,0.8484356689453125,1.8893710327148439,-0.20610687022900762,-0.1297709923664122,-0.05343511450381679
1.5795153808593752,0.24519012451171876,1.5343093872070312,-0.030534351145038167,-0.08396946564885496,0.030534351145038167
1.5148498535156252,0.354462890625,1.8184185791015626,-0.05343511450381679,0.04580152671755725,-0.12213740458015267
1.375938720703125,0.7696994018554688,1.9351757812500001,0.08396946564885496,-0.007633587786259542,-0.11450381679389313
1.469344482421875,0.9523196411132813,1.8836828613281251,-0.06870229007633588,-0.08396946564885496,-0.1450381679389313
1.2304412841796875,1.0011181640625,2.0145108032226564,-0.08396946564885496,-0.183206106870229,-0.1450381679389313
1.2948074340820312,0.8098159790039063,2.0519329833984377,-0.20610687022900762,-0.1297709923664122,-0.3893129770992366
1.452579345703125,0.04101470947265625,1.3448034667968751,-0.022900763358778626,-0.23664122137404578,-0.37404580152671757
2.1079165649414064,-1.7187258911132814,-0.9002279663085938,0.5343511450381679,0.7862595419847328,-1.129770992366412
2.0758831787109377,-1.0651849365234376,-1.3933026123046877,1.2213740458015268,1.0229007633587786,-1.0229007633587786
-0.8619076538085938,2.265389099121094,-3.5296600341796878,-0.83206106870229,2.1221374045801524,-0.8473282442748091
-2.276466064453125,0.2233355712890625,-1.07296875,-1.5267175572519083,1.2748091603053435,0.9618320610687022
0.33021331787109376,-1.4187496948242189,-0.02903961181640625,-0.8015267175572519,0.4961832061068702,0.3893129770992366
1.3115725708007813,-1.4891033935546876,-0.01945953369140625,0.07633587786259542,-0.25190839694656486,0.05343511450381679
0.29368927001953127,-2.6036856079101565,-0.0892144775390625,1.2213740458015268,-0.8091603053435115,-1.1374045801526718
-3.3650024414062503,1.8181192016601564,-1.646575927734375,1.0610687022900762,-1.297709923664122,-1.045801526717557
-3.3650024414062503,1.8181192016601564,-1.646575927734375,1.0610687022900762,-1.297709923664122,-1.045801526717557
1.2930111694335937,0.7786807250976563,-1.1217672729492187,0.37404580152671757,-0.7175572519083969,0.007633587786259542
3.2326776123046876,-0.3948788452148438,-0.8002359008789063,-0.22900763358778625,-0.3053435114503817,0.08396946564885496
3.6359390258789066,-1.8609301757812502,-0.46193939208984375,0.5190839694656488,0.7786259541984732,0.24427480916030533
3.6359390258789066,-1.8609301757812502,-0.46193939208984375,0.5190839694656488,0.7786259541984732,0.24427480916030533
3.6359390258789066,-1.8609301757812502,-0.46193939208984375,0.5190839694656488,0.7786259541984732,0.24427480916030533
3.6359390258789066,-1.8609301757812502,-0.46193939208984375,0.5190839694656488,0.7786259541984732,0.24427480916030533
3.6359390258789066,-1.8609301757812502,-0.46193939208984375,0.5190839694656488,0.7786259541984732,0.24427480916030533
1.32205078125,-1.9004479980468751,-0.4673281860351563,-0.11450381679389313,0.0,0.4809160305343511
1.2208612060546875,-1.134041748046875,0.2700384521484375,0.41221374045801523,-0.5343511450381679,-0.6335877862595419
-0.49576904296875,1.2205618286132813,0.0916094970703125,0.45038167938931295,-1.4351145038167938,-0.6106870229007634
-0.5547463989257813,2.545606384277344,-0.8448431396484375,0.183206106870229,-1.6946564885496183,0.1297709923664122
1.0942245483398438,2.136058044433594,-1.6040643310546876,-0.8473282442748091,-0.9618320610687022,0.6106870229007634
0.985550537109375,-0.5523513793945313,0.8541238403320313,-0.7557251908396946,-0.1297709923664122,0.46564885496183206
0.8122109985351563,-0.25656646728515625,1.2654684448242188,-0.1984732824427481,0.2900763358778626,0.007633587786259542
0.9313632202148437,0.456251220703125,1.8010546875000002,0.282442748091603,0.19083969465648853,0.1450381679389313
1.0211764526367189,1.482217712402344,2.2650897216796877,0.12213740458015267,0.015267175572519083,0.1450381679389313
0.6574328613281251,1.5310162353515626,2.174677734375,-0.19083969465648853,0.06870229007633588,0.061068702290076333
0.8912466430664063,1.0588980102539063,2.0444485473632814,-0.29770992366412213,-0.07633587786259542,0.04580152671755725
1.0451266479492187,0.8098159790039063,1.7277072143554688,-0.15267175572519084,-0.1984732824427481,0.0916030534351145
1.1897259521484376,0.6975494384765626,1.7540524291992188,-0.10687022900763359,-0.10687022900763359,0.03816793893129771
1.3561798095703126,0.7723937988281251,1.9908599853515625,-0.022900763358778626,0.007633587786259542,0.06870229007633588
1.3430072021484376,1.057401123046875,2.06690185546875,-0.007633587786259542,0.08396946564885496,0.1984732824427481
1.18074462890625,1.0954220581054688,1.8471588134765626,-0.06870229007633588,0.061068702290076333,0.2213740458015267
1.1082952880859376,0.8535250854492188,1.9414627075195314,-0.015267175572519083,-0.061068702290076333,0.17557251908396945
1.2256512451171875,0.8047265625000001,2.006427612304688,0.05343511450381679,-0.11450381679389313,0.022900763358778626
1.3534854125976563,0.7685018920898438,1.9687060546875002,0.16793893129770993,-0.09923664122137404,-0.2595419847328244
1.302591247558594,1.1876303100585939,2.1151016235351565,-0.022900763358778626,-0.1450381679389313,-0.282442748091603
1.2669653320312502,0.923280029296875,2.126178588867188,-0.21374045801526717,-0.07633587786259542,-0.22900763358778625
1.4166540527343752,0.511336669921875,1.9408639526367188,-0.13740458015267176,-0.11450381679389313,-0.08396946564885496
1.558858337402344,0.33709899902343754,1.768721923828125,-0.061068702290076333,-0.09923664122137404,0.0
1.5223342895507814,0.44038421630859376,1.8594332885742189,0.015267175572519083,0.03816793893129771,0.03816793893129771
1.0439291381835938,0.5810916137695313,2.0240908813476564,0.1450381679389313,-0.04580152671755725,-0.11450381679389313
1.2924124145507814,0.9032217407226563,2.1474343872070314,-0.061068702290076333,-0.0916030534351145,-0.48854961832061067
1.4151571655273438,0.73048095703125,2.036065979003906,-0.007633587786259542,-0.26717557251908397,-0.366412213740458
1.9130218505859375,-0.71611083984375,0.7601193237304688,0.16030534351145037,-0.16030534351145037,-0.3893129770992366
2.6270370483398438,-0.6388714599609375,-0.729283447265625,1.5114503816793892,0.8778625954198473,-0.1297709923664122
0.21465362548828126,0.46762756347656254,-2.519560546875,-0.20610687022900762,1.7786259541984732,-1.4045801526717556
-2.9333001708984376,2.3929238891601563,-1.6079562377929688,-3.8091603053435112,1.9312977099236641,-1.3129770992366412
0.7265890502929688,-1.5385006713867189,-0.15477813720703126,0.04580152671755725,-0.26717557251908397,1.0610687022900762
1.289718017578125,-2.2040167236328125,-0.10388397216796875,0.21374045801526717,-0.3893129770992366,0.061068702290076333
-0.724493408203125,-1.07296875,0.24099884033203126,0.8244274809160305,-1.282442748091603,-0.9923664122137404
-2.1785696411132816,1.1475137329101563,-1.05141357421875,0.7557251908396946,-1.6412213740458015,-0.7480916030534351
-1.0062075805664064,2.0408560180664064,-1.0038125610351563,0.03816793893129771,-1.450381679389313,-0.4351145038167939
0.9373507690429688,2.001936950683594,-0.7152127075195313,-0.6259541984732824,-0.7099236641221374,-0.564885496183206
2.508483581542969,-1.3630654907226563,0.2077679443359375,0.1984732824427481,-0.8778625954198473,0.5267175572519084
2.651885375976563,-2.0474423217773436,-0.7325765991210937,-0.3129770992366412,-0.4961832061068702,0.282442748091603
1.7594412231445313,-0.858614501953125,-0.23082000732421876,0.8702290076335878,0.9694656488549618,-0.1297709923664122
0.23141876220703125,1.4235397338867188,-1.2963043212890626,-0.366412213740458,2.1221374045801524,-0.8244274809160305
-2.7991790771484375,1.9737954711914063,-0.5676196289062501,-3.732824427480916,1.6335877862595418,-0.6946564885496183
-1.2439132690429688,0.300574951171875,-0.5325924682617188,0.4961832061068702,-0.16030534351145037,1.7404580152671756
0.2721340942382813,-1.678609313964844,-0.38619689941406254,0.2900763358778626,-0.19083969465648853,1.045801526717557
1.2424163818359375,-2.195933532714844,0.2281256103515625,0.13740458015267176,-0.29770992366412213,-0.16030534351145037
-0.2505789184570313,-0.8532257080078125,0.15956817626953126,0.564885496183206,-0.9923664122137404,-0.9312977099236641
-1.4696438598632813,1.708547058105469,-0.18142272949218752,0.4961832061068702,-1.4427480916030533,-0.6641221374045801
-0.17274078369140625,2.532733154296875,-0.9337582397460938,-0.48854961832061067,-1.2442748091603053,0.2213740458015267
1.1810440063476564,1.5055691528320314,-1.1142828369140625,-0.9312977099236641,-0.4427480916030534,0.5877862595419847
0.8032296752929687,-0.996328125,0.5583389282226563,-0.8931297709923663,-0.2900763358778626,0.5954198473282443
0.6984475708007812,-0.7702981567382813,1.33402587890625,-0.13740458015267176,0.06870229007633588,0.4427480916030534
0.814306640625,0.3894900512695313,2.5300387573242187,0.183206106870229,0.1450381679389313,0.2595419847328244
0.9313632202148437,0.83586181640625,2.205513610839844,0.21374045801526717,-0.12213740458015267,0.25190839694656486
1.3726455688476564,1.1079959106445314,1.9917581176757813,0.46564885496183206,-0.282442748091603,0.2595419847328244
1.657054138183594,0.8307723999023438,1.8657202148437502,-0.061068702290076333,0.04580152671755725,0.022900763358778626
1.8220111083984376,1.2415182495117187,1.8627264404296875,-0.03816793893129771,-0.007633587786259542,0.23664122137404578
1.969903564453125,1.0151889038085937,1.7744100952148438,-0.08396946564885496,0.11450381679389313,0.20610687022900762
1.3690530395507814,0.8538244628906251,1.728006591796875,-0.05343511450381679,-0.061068702290076333,0.015267175572519083
1.8899697875976564,0.5376818847656251,2.019300842285156,-0.015267175572519083,-0.07633587786259542,-0.3129770992366412
1.8899697875976564,0.5376818847656251,2.019300842285156,-0.015267175572519083,-0.07633587786259542,-0.3129770992366412
1.8899697875976564,0.5376818847656251,2.019300842285156,-0.015267175572519083,-0.07633587786259542,-0.3129770992366412
1.8899697875976564,0.5376818847656251,2.019300842285156,-0.015267175572519083,-0.07633587786259542,-0.3129770992366412
1.8899697875976564,0.5376818847656251,2.019300842285156,-0.015267175572519083,-0.07633587786259542,-0.3129770992366412
1.8899697875976564,0.5376818847656251,2.019300842285156,-0.015267175572519083,-0.07633587786259542,-0.3129770992366412
1.8899697875976564,0.5376818847656251,2.019300842285156,-0.015267175572519083,-0.07633587786259542,-0.3129770992366412
1.6528628540039063,0.7235952758789063,2.4351361083984377,-0.29770992366412213,0.030534351145038167,-0.282442748091603
1.991159362792969,0.15058685302734376,0.0461041259765625,-0.3053435114503817,-0.15267175572519084,-0.46564885496183206
2.0591180419921877,-0.2724334716796875,-0.6550378417968751,1.083969465648855,1.1526717557251909,-0.22900763358778625
1.6992663574218752,1.8019528198242187,-0.48948211669921876,0.9618320610687022,1.114503816793893,0.13740458015267176
-0.6014492797851563,2.6300308227539064,-1.3480966186523438,-0.2748091603053435,2.351145038167939,0.8091603053435115
-1.8091378784179688,1.1987072753906252,0.31853759765625,-1.16793893129771,1.1450381679389312,1.3206106870229006
0.5502557373046876,-0.6978488159179688,0.6577322387695312,-0.25190839694656486,0.05343511450381679,0.4427480916030534
0.67779052734375,-1.5364050292968752,-0.128133544921875,0.8702290076335878,-0.5267175572519084,-0.4427480916030534
-0.082628173828125,-1.72680908203125,-0.039517822265625,0.6641221374045801,-0.40458015267175573,-1.5419847328244274
-3.0695169067382815,1.9025436401367188,-0.3496728515625,2.312977099236641,-1.7251908396946565,-0.282442748091603
0.540076904296875,0.7406597900390626,-1.803150329589844,0.21374045801526717,-0.7404580152671756,0.04580152671755725
3.6847375488281253,-1.4570700073242189,-0.37751495361328125,-0.4198473282442748,-0.6641221374045801,0.33587786259541985
3.801794128417969,-2.2635928344726564,-0.73048095703125,-0.022900763358778626,0.564885496183206,0.13740458015267176
1.8507513427734377,0.9122030639648437,-2.382445678710938,0.061068702290076333,1.6870229007633588,0.3282442748091603
-1.4253359985351564,2.4758514404296874,-0.9825567626953126,0.17557251908396945,1.732824427480916,0.9389312977099237
-1.3460009765625,1.69806884765625,-1.1493099975585939,-0.7251908396946565,1.3282442748091603,0.1450381679389313
-0.20627105712890625,0.8888516235351563,0.43200164794921875,-0.6106870229007634,0.4351145038167939,0.2213740458015267
0.6487509155273438,-0.6116281127929688,-0.5523513793945313,0.3511450381679389,-0.2595419847328244,0.6106870229007634
-0.05987548828125,-0.9648934936523438,0.0209564208984375,0.5114503816793893,-0.42748091603053434,-1.4580152671755724
0.21106109619140626,2.2863455200195313,-1.3133688354492188,0.5954198473282443,-0.6335877862595419,0.648854961832061
0.9666897583007813,0.2505789184570313,-0.8382568359375,-0.9541984732824427,-0.4198473282442748,0.7480916030534351
0.5987548828125,-0.5670208740234375,1.0448272705078125,-1.0,-0.6946564885496183,0.34351145038167935
0.767603759765625,-0.47750701904296877,1.150806884765625,-0.5190839694656488,-0.38167938931297707,0.12213740458015267
0.8930429077148438,-0.15777191162109375,1.419049072265625,-0.09923664122137404,-0.0916030534351145,0.030534351145038167
0.9589059448242188,0.571212158203125,1.8693127441406252,0.08396946564885496,-0.007633587786259542,0.06870229007633588
1.1304492187500002,1.33881591796875,2.0672012329101563,0.3129770992366412,-0.20610687022900762,0.3282442748091603
1.0469229125976562,1.8555413818359376,2.046244812011719,0.1450381679389313,-0.022900763358778626,0.26717557251908397
0.7068301391601562,1.560355224609375,1.9540365600585938,-0.3511450381679389,0.061068702290076333,-0.030534351145038167
1.2828323364257812,0.6496490478515625,1.9938537597656252,-0.1450381679389313,-0.15267175572519084,-0.07633587786259542
1.4771282958984375,0.7969427490234375,1.7771044921875,-0.030534351145038167,-0.09923664122137404,0.0
1.5055691528320314,1.1310479736328125,1.738484802246094,-0.022900763358778626,0.015267175572519083,0.16793893129770993
1.4699432373046877,1.2002041625976563,1.8106347656250001,-0.1450381679389313,0.08396946564885496,0.15267175572519084
1.4235397338867188,1.0238708496093751,1.6845968627929688,-0.09923664122137404,0.007633587786259542,0.030534351145038167
1.302591247558594,0.9433383178710938,1.833387451171875,-0.030534351145038167,0.0,-0.030534351145038167
1.2663665771484376,0.7415579223632813,1.8268011474609376,0.015267175572519083,-0.0916030534351145,-0.16030534351145037
1.41066650390625,1.3301339721679688,2.0743862915039064,0.09923664122137404,-0.07633587786259542,-0.2900763358778626
1.3555810546875,0.9903405761718751,2.0145108032226564,-0.3282442748091603,-0.061068702290076333,-0.2748091603053435
1.5031741333007813,0.18172210693359375,1.7420773315429687,-0.13740458015267176,-0.16030534351145037,-0.1450381679389313
1.3741424560546875,0.659827880859375,2.0046313476562503,0.07633587786259542,0.06870229007633588,0.03816793893129771
1.2109817504882814,0.7167095947265625,1.8684146118164064,-0.007633587786259542,0.08396946564885496,0.061068702290076333
1.32444580078125,0.7271878051757813,1.8555413818359376,0.1297709923664122,-0.022900763358778626,-0.08396946564885496
1.16158447265625,1.0484197998046876,2.1671932983398436,-0.007633587786259542,-0.05343511450381679,-0.16030534351145037
1.4403048706054689,0.743653564453125,1.6612454223632813,-0.08396946564885496,-0.20610687022900762,-0.1297709923664122
2.003433837890625,-0.6436614990234375,0.16795074462890625,0.4198473282442748,0.3129770992366412,-0.22900763358778625
2.0677999877929687,-0.2347119140625,-1.1337423706054688,0.35877862595419846,1.16793893129771,-0.48854961832061067
1.1163784790039064,1.8510507202148438,-0.15058685302734376,0.9618320610687022,1.0534351145038168,0.2748091603053435
-1.215472412109375,2.654579772949219,-0.8026309204101563,-1.0076335877862594,1.3358778625954197,-0.022900763358778626
-0.15058685302734376,0.10448272705078125,0.34338592529296874,-0.5954198473282443,0.7557251908396946,0.7022900763358778
1.0918295288085937,-1.4561718750000001,0.25656646728515625,0.21374045801526717,-0.1450381679389313,0.12213740458015267
0.9583071899414063,-1.9034417724609376,0.25956024169921876,0.45038167938931295,-0.23664122137404578,-0.6717557251908397
-2.7740313720703127,1.0535092163085937,-0.8774752807617188,1.8778625954198473,-1.8244274809160304,-0.11450381679389313
-1.0100994873046876,1.294208679199219,-2.022593994140625,-0.183206106870229,-0.6564885496183206,0.3282442748091603
0.5266049194335938,0.10687774658203125,-1.1442205810546875,-0.7862595419847328,-0.8625954198473282,0.24427480916030533
1.9507434082031252,-1.3983920288085938,-0.25896148681640624,-0.5114503816793893,-1.0305343511450382,-0.061068702290076333
2.8629464721679687,-1.347198486328125,-0.8415499877929687,0.4809160305343511,1.2671755725190839,-0.25190839694656486
-0.12543914794921876,0.243094482421875,-0.5298980712890625,0.4427480916030534,1.0076335877862594,-0.12213740458015267
-0.7214996337890626,-0.29219238281250004,-1.5564633178710938,-0.6335877862595419,0.3969465648854962,1.3129770992366412
0.7343728637695313,-1.3427078247070314,-0.5050497436523438,-0.4580152671755725,-0.1297709923664122,0.9389312977099237
0.718505859375,-1.7199234008789064,0.20597167968750002,0.7557251908396946,-0.6259541984732824,-0.8396946564885496
-1.5510745239257813,0.60114990234375,-0.3688330078125,0.6412213740458015,-1.3587786259541985,-1.1221374045801527
-0.9520202636718751,2.168390808105469,-0.5131329345703125,0.42748091603053434,-1.015267175572519,0.38167938931297707
0.006885681152343751,1.593885498046875,-0.6807843017578126,-0.4351145038167939,-0.8702290076335878,0.9312977099236641
0.006885681152343751,1.593885498046875,-0.6807843017578126,-0.4351145038167939,-0.8702290076335878,0.9312977099236641
0.006885681152343751,1.593885498046875,-0.6807843017578126,-0.4351145038167939,-0.8702290076335878,0.9312977099236641
0.006885681152343751,1.593885498046875,-0.6807843017578126,-0.4351145038167939,-0.8702290076335878,0.9312977099236641
1.2519964599609377,1.1175759887695313,1.5893948364257813,0.47328244274809156,0.030534351145038167,0.1984732824427481
1.2519964599609377,1.1175759887695313,1.5893948364257813,0.47328244274809156,0.030534351145038167,0.1984732824427481
1.2519964599609377,1.1175759887695313,1.5893948364257813,0.47328244274809156,0.030534351145038167,0.1984732824427481
1.2519964599609377,1.1175759887695313,1.5893948364257813,0.47328244274809156,0.030534351145038167,0.1984732824427481
1.4882052612304688,0.5550457763671875,1.67890869140625,-0.022900763358778626,-0.16030534351145037,0.022900763358778626
1.59747802734375,0.9379495239257813,2.053130493164063,0.09923664122137404,-0.04580152671755725,0.10687022900763359
1.5630496215820313,1.1864328002929687,1.9818786621093751,-0.09923664122137404,-0.022900763358778626,0.2213740458015267
1.5950830078125,1.0322534179687501,1.9606228637695313,-0.12213740458015267,-0.0916030534351145,0.15267175572519084
1.4735357666015625,0.9729766845703125,1.9300863647460937,-0.11450381679389313,-0.22900763358778625,-0.015267175572519083
1.7660275268554688,0.7966433715820312,1.906435546875,0.05343511450381679,-0.17557251908396945,-0.061068702290076333
1.8995498657226564,0.8523275756835937,1.8435662841796876,-0.07633587786259542,-0.07633587786259542,-0.24427480916030533
2.0219952392578127,1.1187734985351563,1.9642153930664064,-0.16793893129770993,0.007633587786259542,-0.22900763358778625
1.7070501708984376,0.7068301391601562,2.070494384765625,-0.2900763358778626,0.04580152671755725,-0.15267175572519084
1.7423767089843751,0.4260140991210938,1.9642153930664064,-0.23664122137404578,-0.05343511450381679,-0.13740458015267176
1.9070343017578126,0.21285736083984377,1.7055532836914062,0.022900763358778626,-0.007633587786259542,-0.007633587786259542
1.7681231689453125,0.20866607666015627,1.8654208374023438,0.03816793893129771,-0.022900763358778626,-0.030534351145038167
1.7525555419921877,0.4278103637695313,1.8923648071289063,0.2595419847328244,-0.061068702290076333,-0.04580152671755725
1.3142669677734375,0.02305206298828125,1.5753240966796875,0.5877862595419847,-0.061068702290076333,-0.282442748091603
1.3504916381835939,0.9145980834960938,1.7777032470703127,0.16793893129770993,-0.1450381679389313,-0.9541984732824427
1.6462765502929688,1.6750167846679689,1.7612374877929688,0.24427480916030533,-0.3893129770992366,-0.5725190839694656
2.68481689453125,-1.1056008911132813,-1.3989907836914064,-0.6641221374045801,0.7633587786259541,-0.8549618320610687
1.6363970947265625,0.810714111328125,-1.6013699340820313,0.8396946564885496,1.4351145038167938,0.007633587786259542
-2.010319519042969,1.4256353759765625,-1.3406121826171875,-1.8015267175572518,1.083969465648855,0.7099236641221374
1.8998492431640626,-1.9896624755859376,0.17603393554687502,0.183206106870229,-0.09923664122137404,0.0
-1.706451416015625,0.19130218505859375,0.43379791259765627,1.5038167938931297,-1.2213740458015268,-1.1068702290076335
-2.076182556152344,1.7944683837890625,-1.234333190917969,0.8244274809160305,-1.6412213740458015,-0.282442748091603
0.029937744140625,1.9833755493164062,-1.0202783203125,-0.3282442748091603,-1.4809160305343512,0.17557251908396945
2.2085073852539066,-0.08083190917968751,-1.0978170776367189,-1.0305343511450382,-0.6870229007633587,-0.16030534351145037
2.288740539550781,-0.3335064697265625,-0.24489074707031253,0.1984732824427481,0.06870229007633588,0.38167938931297707
1.8962567138671875,0.4149371337890625,-0.4876858520507813,0.8167938931297709,0.5190839694656488,0.6564885496183206
0.33440460205078126,2.3366409301757813,-0.9798623657226563,1.1374045801526718,1.6030534351145038,0.3511450381679389
-1.9390676879882813,1.3906082153320314,-0.02155517578125,-1.198473282442748,1.6335877862595418,-0.4961832061068702
0.0389190673828125,0.22962249755859376,0.21615051269531252,-1.1603053435114503,0.09923664122137404,0.3511450381679389
0.8918453979492188,-1.1283535766601562,-0.20686981201171875,0.6946564885496183,-0.3893129770992366,0.46564885496183206
1.0669812011718751,-2.155218200683594,-0.11166778564453125,0.6564885496183206,-0.6793893129770993,-0.5572519083969465
-1.2020004272460938,0.4101470947265625,-0.080233154296875,0.9541984732824427,-1.1603053435114503,-1.1755725190839694
-1.6277151489257813,2.0782781982421876,-0.296982421875,0.8931297709923663,-1.580152671755725,0.0
-0.49337402343750003,1.8738034057617188,-0.46702880859375,-0.40458015267175573,-1.015267175572519,0.366412213740458
0.8948391723632813,-0.0473016357421875,-0.204774169921875,-0.3969465648854962,-0.8015267175572519,0.5190839694656488
0.9921368408203125,-0.9654922485351562,1.004710693359375,-0.4427480916030534,-0.47328244274809156,0.4580152671755725
1.1097921752929687,-0.42960662841796876,1.791474609375,0.29770992366412213,0.0,0.24427480916030533
0.9684860229492188,0.47481262207031255,2.118394775390625,0.6870229007633587,-0.15267175572519084,0.22900763358778625
0.9577084350585938,1.4085708618164063,2.691702575683594,0.3969465648854962,-0.16793893129770993,0.11450381679389313
1.033151550292969,1.5459851074218751,2.9189300537109375,-0.16793893129770993,0.06870229007633588,0.04580152671755725
1.1933184814453126,0.7855664062500001,2.395618286132813,-0.2900763358778626,-0.0916030534351145,0.13740458015267176
1.5606546020507814,0.4996609497070313,1.6792080688476563,0.05343511450381679,-0.06870229007633588,0.21374045801526717
1.5750247192382814,0.6472540283203125,1.7031582641601564,-0.03816793893129771,0.09923664122137404,0.1297709923664122
1.457369384765625,1.069376220703125,2.151925048828125,0.11450381679389313,-0.015267175572519083,0.20610687022900762
1.7381854248046875,0.8798703002929688,1.8187179565429688,0.21374045801526717,-0.1297709923664122,-0.1984732824427481
2.027084655761719,1.205892333984375,1.921703796386719,-0.0916030534351145,-0.015267175572519083,-0.282442748091603
1.8971548461914063,1.0472222900390626,2.0100201416015624,-0.38167938931297707,0.0916030534351145,-0.1297709923664122
1.6741186523437501,0.023351440429687502,1.4932946777343752,0.061068702290076333,-0.10687022900763359,-0.05343511450381679
1.74357421875,0.14519805908203126,1.422342224121094,0.20610687022900762,0.015267175572519083,-0.2595419847328244
1.6807049560546876,1.0124945068359374,1.59747802734375,0.7022900763358778,0.282442748091603,0.09923664122137404
1.2639715576171875,0.5116360473632813,1.7100439453125,0.11450381679389313,-0.030534351145038167,-0.48854961832061067
1.5702346801757814,0.626297607421875,1.1684701538085938,-0.15267175572519084,-0.183206106870229,-0.24427480916030533
2.118394775390625,-0.16645385742187502,0.11226654052734375,-0.5114503816793893,0.22900763358778625,-0.4198473282442748
2.2237756347656252,-0.5284011840820313,-1.4415023803710938,0.6030534351145038,1.381679389312977,-0.6335877862595419
1.411864013671875,2.0555255126953127,-2.159409484863281,-0.34351145038167935,1.7862595419847327,-0.3511450381679389
-1.6690292358398438,0.336500244140625,-0.839454345703125,-1.1374045801526718,1.6030534351145038,-1.045801526717557
-0.6984475708007812,1.5250286865234375,0.4355941772460938,-1.4809160305343512,-0.41221374045801523,0.6564885496183206
1.0014175415039064,-1.1097921752929687,-0.061372375488281256,0.47328244274809156,-0.25190839694656486,1.2595419847328244
1.0014175415039064,-1.1097921752929687,-0.061372375488281256,0.47328244274809156,-0.25190839694656486,1.2595419847328244
1.0014175415039064,-1.1097921752929687,-0.061372375488281256,0.47328244274809156,-0.25190839694656486,1.2595419847328244
-2.375559997558594,0.46613067626953125,-0.5742059326171876,1.5954198473282442,-1.1221374045801527,-0.007633587786259542
-2.375559997558594,0.46613067626953125,-0.5742059326171876,1.5954198473282442,-1.1221374045801527,-0.007633587786259542
-2.375559997558594,0.46613067626953125,-0.5742059326171876,1.5954198473282442,-1.1221374045801527,-0.007633587786259542
2.865042114257813,-0.3394940185546875,-0.43499542236328126,-0.23664122137404578,-0.5954198473282443,0.35877862595419846
2.865042114257813,-0.3394940185546875,-0.43499542236328126,-0.23664122137404578,-0.5954198473282443,0.35877862595419846
2.3294558715820313,-0.9098080444335938,-1.0253677368164062,1.129770992366412,1.2213740458015268,0.23664122137404578
-2.5944049072265627,1.9642153930664064,-2.3608905029296876,-2.1374045801526718,1.4122137404580153,-0.6412213740458015
-1.95673095703125,2.9174331665039066,0.21315673828125,-2.0534351145038165,0.8549618320610687,0.5877862595419847
-0.0868194580078125,-0.28410919189453127,-0.03442840576171875,0.6412213740458015,-0.45038167938931295,0.8702290076335878
0.4245172119140625,-1.1918215942382813,-0.360450439453125,0.05343511450381679,-0.23664122137404578,0.23664122137404578
-0.08472381591796875,-0.683778076171875,0.06376739501953126,0.23664122137404578,-0.23664122137404578,-0.9312977099236641
-1.229842529296875,0.9178912353515626,0.06825805664062501,1.0610687022900762,-0.8167938931297709,-0.7480916030534351
-0.5538482666015625,2.570754089355469,-0.5511538696289062,0.030534351145038167,-1.0076335877862594,0.03816793893129771
0.5143304443359376,1.7283059692382814,-0.22573059082031252,-0.1984732824427481,-1.015267175572519,0.6106870229007634
0.942440185546875,-0.7134164428710937,0.5658233642578125,-0.732824427480916,-0.4580152671755725,0.5419847328244275
0.7658074951171875,-0.6080355834960938,1.3214520263671876,-0.33587786259541985,-0.1450381679389313,0.5725190839694656
0.8669970703125001,-0.0484991455078125,1.9606228637695313,0.12213740458015267,0.16793893129770993,0.2900763358778626
0.8253836059570313,1.0157876586914063,1.8483563232421876,0.19083969465648853,0.05343511450381679,0.12213740458015267
1.1921209716796877,1.670226745605469,1.888173522949219,0.4198473282442748,-0.11450381679389313,0.24427480916030533
1.5322137451171876,0.9873468017578125,1.3247451782226562,-0.007633587786259542,-0.10687022900763359,0.09923664122137404
1.5139517211914064,1.0151889038085937,1.2112811279296876,0.06870229007633588,0.07633587786259542,0.0916030534351145
1.5920892333984376,1.2840298461914064,1.4929953002929688,0.16793893129770993,0.05343511450381679,0.19083969465648853
1.7896783447265625,1.4714401245117188,1.347198486328125,0.20610687022900762,0.09923664122137404,0.3053435114503817
1.3486953735351563,1.1873309326171875,1.3693524169921876,-0.022900763358778626,0.022900763358778626,0.07633587786259542
1.30049560546875,1.1708651733398439,1.5028747558593751,-0.007633587786259542,-0.05343511450381679,-0.022900763358778626
1.2654684448242188,1.1831396484375,1.5534695434570314,-0.022900763358778626,-0.26717557251908397,-0.21374045801526717
1.4600637817382813,1.0987152099609376,1.3013937377929687,0.022900763358778626,-0.2900763358778626,-0.26717557251908397
1.542093200683594,1.2672647094726563,1.4337185668945314,-0.32061068702290074,-0.29770992366412213,-0.2900763358778626
1.668131103515625,1.069376220703125,1.5624508666992187,-0.13740458015267176,-0.25190839694656486,-0.07633587786259542
1.7061520385742188,0.7664062500000001,1.3977932739257812,-0.05343511450381679,-0.13740458015267176,0.061068702290076333
1.7588424682617188,0.6059399414062501,1.2699591064453126,0.030534351145038167,0.015267175572519083,0.061068702290076333
1.5133529663085938,0.7478448486328125,1.3636642456054688,-0.13740458015267176,0.16030534351145037,-0.05343511450381679
1.4169534301757813,0.9406439208984375,1.580413513183594,-0.007633587786259542,0.10687022900763359,-0.030534351145038167
1.4651531982421875,1.0050100708007812,1.6124468994140626,-0.022900763358778626,-0.04580152671755725,0.007633587786259542
1.2966036987304688,1.2747491455078126,1.7456698608398438,-0.17557251908396945,-0.17557251908396945,-0.41221374045801523
1.4486874389648439,0.39787261962890624,1.3442047119140625,-0.17557251908396945,-0.34351145038167935,-0.5572519083969465
2.171983337402344,-1.4151571655273438,-0.468226318359375,0.47328244274809156,0.5343511450381679,-0.7786259541984732
1.1873309326171875,-1.5429913330078127,-0.784368896484375,0.26717557251908397,-0.1984732824427481,-0.8244274809160305
-1.1094927978515625,2.508782958984375,-1.5295193481445313,-1.4427480916030533,1.83206106870229,-0.6641221374045801
-1.48251708984375,1.00830322265625,0.039218444824218754,-1.0,1.1755725190839694,0.648854961832061
0.9163943481445312,-2.084864501953125,0.28380981445312503,-0.08396946564885496,0.1297709923664122,0.6259541984732824
1.8962567138671875,-2.951861572265625,0.5798941040039063,-0.1984732824427481,-0.13740458015267176,-0.732824427480916
-1.7507592773437501,0.5185217285156251,-0.28021728515625,1.5038167938931297,-1.045801526717557,-1.0916030534351144
-1.32205078125,2.1145028686523437,-1.7492623901367188,0.1297709923664122,-1.0381679389312977,0.022900763358778626
1.0280621337890625,0.45684997558593754,-0.8029302978515626,0.05343511450381679,-0.7633587786259541,0.21374045801526717
1.5831079101562502,-0.6553372192382813,-0.06825805664062501,0.2748091603053435,-0.8931297709923663,0.4580152671755725
2.3905288696289064,-2.0172052001953125,-0.09101074218750001,0.3053435114503817,0.32061068702290074,0.0
1.222657470703125,0.07813751220703126,-0.9334588623046876,0.20610687022900762,0.8854961832061068,-0.46564885496183206
-1.5492782592773438,0.087418212890625,-2.1806652832031252,0.23664122137404578,1.8702290076335877,-1.015267175572519
0.9840536499023438,-1.2379257202148437,0.22573059082031252,-0.1450381679389313,0.03816793893129771,0.7022900763358778
1.4998809814453127,-1.6328045654296877,0.08592132568359376,0.1297709923664122,-0.26717557251908397,0.16030534351145037
0.27872039794921877,-0.14040802001953126,-0.8780740356445313,0.5419847328244275,-0.5572519083969465,-0.32061068702290074
-0.32781829833984377,0.7475454711914062,-0.6289920043945313,1.0305343511450382,-0.7022900763358778,0.183206106870229
-0.04101470947265625,0.8882528686523438,-1.1256591796875,-0.3129770992366412,-0.9923664122137404,0.3893129770992366
0.6092330932617188,0.5298980712890625,-1.2424163818359375,-0.5725190839694656,-0.6641221374045801,0.4961832061068702
1.2828323364257812,-0.72090087890625,0.06256988525390625,-0.8015267175572519,-0.5267175572519084,0.5038167938931297
0.8858578491210938,-0.7331753540039063,1.169667663574219,0.0916030534351145,-0.04580152671755725,0.7480916030534351
0.7990383911132813,0.16375946044921877,1.605561218261719,0.42748091603053434,0.26717557251908397,0.24427480916030533
0.8619076538085938,1.9429595947265625,1.1984078979492188,0.47328244274809156,0.06870229007633588,0.4427480916030534
1.04183349609375,2.405497741699219,1.4385086059570313,0.40458015267175573,-0.10687022900763359,0.564885496183206
1.229543151855469,2.0914508056640626,1.2163705444335937,-0.1450381679389313,0.04580152671755725,0.007633587786259542
1.2930111694335937,0.5445675659179687,1.0642868041992188,0.1297709923664122,-0.0916030534351145,-0.1450381679389313
1.5163467407226563,1.7696200561523439,0.93645263671875,-0.022900763358778626,0.1984732824427481,0.2213740458015267
1.1993060302734375,1.3699511718750002,1.1822415161132813,-0.03816793893129771,0.16793893129770993,0.2213740458015267
1.1993060302734375,1.3699511718750002,1.1822415161132813,-0.03816793893129771,0.16793893129770993,0.2213740458015267
1.1993060302734375,1.3699511718750002,1.1822415161132813,-0.03816793893129771,0.16793893129770993,0.2213740458015267
1.4998809814453127,1.2843292236328125,0.7110214233398438,-0.03816793893129771,-0.15267175572519084,-0.07633587786259542
1.4998809814453127,1.2843292236328125,0.7110214233398438,-0.03816793893129771,-0.15267175572519084,-0.07633587786259542
1.4998809814453127,1.2843292236328125,0.7110214233398438,-0.03816793893129771,-0.15267175572519084,-0.07633587786259542
1.4998809814453127,1.2843292236328125,0.7110214233398438,-0.03816793893129771,-0.15267175572519084,-0.07633587786259542
1.4998809814453127,1.2843292236328125,0.7110214233398438,-0.03816793893129771,-0.15267175572519084,-0.07633587786259542
1.1298504638671876,0.5053491210937501,1.1594888305664064,0.3893129770992366,-0.05343511450381679,-0.4809160305343511
1.1954141235351563,1.2558883666992189,0.9672885131835938,0.26717557251908397,-0.15267175572519084,-0.37404580152671757
1.0319540405273437,1.3037887573242188,1.3448034667968751,0.12213740458015267,-0.183206106870229,-0.3129770992366412
1.2008029174804689,1.390308837890625,0.83586181640625,-0.4809160305343511,-0.20610687022900762,-0.07633587786259542
0.9562115478515626,0.9511221313476563,0.5975573730468751,-0.5877862595419847,-0.0916030534351145,0.16793893129770993
0.9325607299804688,-0.38559814453125,0.5715115356445313,-0.4961832061068702,0.25190839694656486,-0.35877862595419846
1.6792080688476563,-0.9972262573242188,0.22543121337890626,-0.3053435114503817,0.46564885496183206,-0.8167938931297709
2.389031982421875,0.038020935058593754,-1.92799072265625,-0.1984732824427481,1.0687022900763359,-0.6335877862595419
0.43230102539062504,1.2855267333984375,-1.7528549194335938,0.21374045801526717,1.5725190839694656,-0.5954198473282443
-2.0758831787109377,2.0812719726562503,-1.1582913208007812,-1.66412213740458,0.8778625954198473,-1.465648854961832
-0.46613067626953125,0.9169931030273438,-1.0397378540039064,-0.8473282442748091,-0.7480916030534351,1.4274809160305344
1.1651770019531251,-1.0484197998046876,-0.659827880859375,0.1984732824427481,-0.13740458015267176,1.2366412213740459
1.212778015136719,-1.85853515625,0.1490899658203125,0.2213740458015267,-0.33587786259541985,-0.8625954198473282
-2.215692443847656,1.4429992675781251,-1.555565185546875,0.6183206106870229,-1.0916030534351144,-0.8091603053435115
-0.756826171875,2.1076171875000003,-1.8348843383789064,0.24427480916030533,-1.282442748091603,0.23664122137404578
0.8193960571289063,0.250279541015625,-0.9702822875976563,-0.10687022900763359,-1.1755725190839694,0.5877862595419847
1.4013858032226563,-1.1984078979492188,-0.067060546875,-0.5877862595419847,-0.7480916030534351,0.24427480916030533
2.570754089355469,-1.6253201293945314,-0.26075775146484376,0.15267175572519084,0.8702290076335878,0.022900763358778626
1.8208135986328127,-0.7397616577148438,-0.5110372924804688,0.9923664122137404,1.0916030534351144,0.11450381679389313
-0.0032931518554687503,1.8058447265625002,-2.3022125244140628,0.35877862595419846,1.0610687022900762,-0.16793893129770993
-2.212099914550781,-0.6825805664062501,-0.966390380859375,-0.11450381679389313,1.6030534351145038,-1.7404580152671756
0.9460327148437501,-2.1474343872070314,-0.3918850708007813,0.34351145038167935,0.24427480916030533,0.8854961832061068
-0.12424163818359375,-0.082628173828125,-0.17004638671875,0.6259541984732824,-0.6870229007633587,-0.24427480916030533
0.28740234375,0.925675048828125,-1.5714321899414063,-0.5954198473282443,-1.015267175572519,0.8854961832061068
0.6957531738281251,-0.4655319213867188,-0.2748284912109375,-1.0687022900763359,-0.7786259541984732,0.5572519083969465
0.8322692871093751,-0.49487091064453126,0.9056167602539062,-0.41221374045801523,-0.23664122137404578,0.33587786259541985
0.79754150390625,0.37242553710937504,1.5765216064453125,0.09923664122137404,0.015267175572519083,0.2595419847328244
0.6544390869140625,1.6205300903320314,2.126178588867188,0.1450381679389313,-0.09923664122137404,0.3053435114503817
0.9678872680664063,1.6696279907226563,1.7298028564453125,-0.022900763358778626,-0.061068702290076333,0.08396946564885496
1.0508148193359375,1.5175442504882812,1.8387762451171876,-0.16793893129770993,0.022900763358778626,-0.007633587786259542
1.575623474121094,1.2124786376953125,1.33402587890625,0.11450381679389313,0.10687022900763359,0.11450381679389313
1.5459851074218751,1.407073974609375,1.5271243286132814,-0.04580152671755725,0.07633587786259542,0.022900763358778626
1.543590087890625,1.4642550659179687,1.3310321044921876,-0.21374045801526717,0.08396946564885496,-0.030534351145038167
1.3031900024414063,1.2507989501953125,1.3457015991210939,-0.22900763358778625,0.06870229007633588,-0.08396946564885496
1.1199710083007812,0.8936416625976563,1.2981005859375,0.05343511450381679,-0.022900763358778626,-0.022900763358778626
1.2148736572265626,1.0316546630859376,1.5573614501953126,0.061068702290076333,-0.1450381679389313,-0.061068702290076333
1.4253359985351564,1.3717474365234377,1.6762142944335938,0.2213740458015267,-0.2748091603053435,0.06870229007633588
1.4187496948242189,1.265767822265625,1.5834072875976564,-0.12213740458015267,-0.12213740458015267,0.007633587786259542
1.45856689453125,0.810714111328125,1.7181271362304689,-0.04580152671755725,-0.1450381679389313,0.030534351145038167
1.9534378051757812,0.5745053100585937,1.3528866577148437,0.04580152671755725,-0.05343511450381679,0.03816793893129771
1.5364050292968752,0.7283853149414062,1.1816427612304687,0.0916030534351145,0.1450381679389313,-0.05343511450381679
1.4004876708984375,0.93884765625,1.4172528076171875,0.061068702290076333,-0.03816793893129771,-0.32061068702290074
1.370849304199219,1.4762301635742188,1.4570700073242189,-0.24427480916030533,-0.32061068702290074,-0.32061068702290074
1.1523037719726563,1.268162841796875,1.2933105468750001,-0.38167938931297707,-0.25190839694656486,-0.25190839694656486
2.1112097167968753,-0.8412506103515626,0.17333953857421877,-0.015267175572519083,0.23664122137404578,-0.5419847328244275
2.3381378173828127,-0.36553985595703126,-0.6400689697265626,0.45038167938931295,0.8396946564885496,-0.24427480916030533
0.5035528564453126,0.9568103027343751,-2.0411553955078126,0.0,1.114503816793893,-0.549618320610687
0.5107379150390625,-1.5798147583007813,0.223934326171875,0.05343511450381679,0.4961832061068702,0.8931297709923663
1.684896240234375,-2.173480224609375,0.8304730224609376,0.40458015267175573,-0.42748091603053434,-0.42748091603053434
-1.569935302734375,-0.41583526611328125,-1.1382330322265626,0.9847328244274809,-1.7786259541984732,-0.5267175572519084
-1.32444580078125,1.1020083618164063,-1.1651770019531251,0.4809160305343511,-1.2213740458015268,-0.15267175572519084
1.8339862060546877,-0.9481283569335938,-0.23082000732421876,-0.24427480916030533,-0.7938931297709924,0.20610687022900762
2.540816345214844,-1.5402969360351564,0.02604583740234375,0.05343511450381679,0.29770992366412213,0.23664122137404578
1.8019528198242187,-0.32781829833984377,-0.6460565185546875,0.4427480916030534,0.9923664122137404,0.5190839694656488
0.439486083984375,1.3127700805664062,-1.512155456542969,0.40458015267175573,1.6564885496183206,0.33587786259541985
0.439486083984375,1.3127700805664062,-1.512155456542969,0.40458015267175573,1.6564885496183206,0.33587786259541985
0.439486083984375,1.3127700805664062,-1.512155456542969,0.40458015267175573,1.6564885496183206,0.33587786259541985
1.4888040161132814,-1.5058685302734376,-0.30805938720703124,-0.3511450381679389,0.06870229007633588,0.5954198473282443
1.4888040161132814,-1.5058685302734376,-0.30805938720703124,-0.3511450381679389,0.06870229007633588,0.5954198473282443
0.2915936279296875,-1.2466076660156251,0.0622705078125,0.5954198473282443,-0.5954198473282443,-0.9618320610687022
0.2915936279296875,-1.2466076660156251,0.0622705078125,0.5954198473282443,-0.5954198473282443,-0.9618320610687022
0.2915936279296875,-1.2466076660156251,0.0622705078125,0.5954198473282443,-0.5954198473282443,-0.9618320610687022
0.8361611938476563,-0.8669970703125001,0.3841012573242188,-0.916030534351145,-0.6793893129770993,0.5190839694656488
1.4100677490234377,-0.5421725463867187,0.959205322265625,-0.3053435114503817,-0.29770992366412213,0.5572519083969465
0.882564697265625,0.513731689453125,1.1930191040039062,-0.030534351145038167,0.11450381679389313,0.4809160305343511
0.6056405639648438,1.2762460327148437,1.6429833984375002,0.0916030534351145,0.07633587786259542,0.2213740458015267
1.1552975463867188,2.023192749023438,1.4675482177734376,0.24427480916030533,-0.19083969465648853,0.19083969465648853
1.3070819091796875,1.9639160156250002,1.359173583984375,-0.11450381679389313,-0.07633587786259542,-0.015267175572519083
1.5301181030273439,1.2798385620117188,1.337618408203125,-0.2595419847328244,-0.19083969465648853,-0.11450381679389313
1.6603472900390626,1.0017169189453126,1.2651690673828127,-0.12213740458015267,0.183206106870229,-0.03816793893129771
1.4343173217773437,1.256187744140625,1.4415023803710938,-0.25190839694656486,0.16793893129770993,-0.0916030534351145
1.4855108642578125,1.2998968505859376,1.3780343627929688,-0.23664122137404578,0.06870229007633588,-0.05343511450381679
1.4196478271484376,1.3289364624023439,1.3232482910156251,-0.23664122137404578,0.04580152671755725,0.015267175572519083
1.2840298461914064,1.0663824462890625,1.4388079833984375,-0.0916030534351145,-0.015267175572519083,0.07633587786259542
1.1352392578125001,0.9038204956054688,1.4684463500976563,0.030534351145038167,-0.13740458015267176,0.015267175572519083
1.2418176269531251,1.0681787109375,1.657054138183594,0.09923664122137404,-0.1450381679389313,-0.05343511450381679
1.5190411376953126,1.217867431640625,1.9073336791992188,0.19083969465648853,-0.2900763358778626,-0.022900763358778626
1.4256353759765625,1.4552737426757814,1.7115408325195314,-0.10687022900763359,-0.26717557251908397,-0.12213740458015267
1.379231872558594,1.0014175415039064,1.6947756958007814,-0.26717557251908397,-0.1297709923664122,-0.1297709923664122
1.402283935546875,0.6607260131835938,1.6157400512695312,-0.183206106870229,-0.11450381679389313,-0.08396946564885496
1.6771124267578126,0.508941650390625,1.4813195800781251,0.030534351145038167,-0.007633587786259542,-0.007633587786259542
1.5654446411132814,0.7571255493164063,1.507664794921875,0.030534351145038167,0.07633587786259542,-0.030534351145038167
1.632205810546875,0.8978329467773438,1.3439053344726564,-0.1450381679389313,0.1984732824427481,-0.1297709923664122
1.2151730346679688,1.0906320190429688,1.5196398925781252,-0.16030534351145037,0.05343511450381679,-0.3053435114503817
1.5214361572265627,0.061072998046875,1.340911560058594,-0.3511450381679389,-0.1297709923664122,-0.6335877862595419
2.4740551757812503,0.8948391723632813,-1.179547119140625,0.09923664122137404,0.183206106870229,0.17557251908396945
2.2141955566406253,1.1154803466796877,-0.8047265625000001,1.1068702290076335,0.9770992366412213,0.45038167938931295
-0.51013916015625,0.7714956665039063,1.0121951293945313,-1.0229007633587786,0.8167938931297709,0.34351145038167935
1.7756076049804688,-0.5415737915039063,-0.43260040283203127,0.5419847328244275,-0.2748091603053435,-0.11450381679389313
0.8786727905273438,-0.3897894287109375,-0.32602203369140625,0.6183206106870229,-0.11450381679389313,-0.549618320610687
-0.38290374755859374,-0.6379733276367188,-0.3311114501953125,1.732824427480916,-0.24427480916030533,-0.9389312977099237
-1.260977783203125,0.4328997802734375,-0.4999603271484375,1.9312977099236641,-1.0381679389312977,-0.4351145038167939
-0.5978567504882812,0.7382647705078126,-0.726888427734375,0.83206106870229,-1.3893129770992365,0.22900763358778625
1.174457702636719,-0.33260833740234375,-0.5140310668945313,-0.05343511450381679,-0.8778625954198473,0.5114503816793893
3.1665151977539066,-1.6546591186523438,0.5649252319335938,-0.3969465648854962,0.03816793893129771,-0.12213740458015267
3.1799871826171877,-1.5112573242187501,0.4796026611328125,-0.2213740458015267,0.5343511450381679,0.04580152671755725
1.6052618408203125,0.067060546875,-1.3391152954101564,-0.6030534351145038,1.366412213740458,-0.20610687022900762
-0.5418731689453126,1.1648776245117187,-1.5489788818359376,0.05343511450381679,1.4122137404580153,0.24427480916030533
-1.1609857177734375,-0.45834686279296877,-1.2636721801757813,-0.7633587786259541,0.8549618320610687,-0.5343511450381679
0.7256909179687501,-0.19699035644531251,-0.9981243896484375,-0.7175572519083969,-0.33587786259541985,0.6793893129770993
1.5262261962890626,-1.6860937500000002,-0.4604425048828125,0.6717557251908397,-0.13740458015267176,0.46564885496183206
0.6963519287109375,-0.7065307617187501,-0.18561401367187502,0.83206106870229,-0.2900763358778626,-0.20610687022900762
-0.6936575317382813,0.623902587890625,-0.5119354248046876,0.37404580152671757,-1.3053435114503815,0.030534351145038167
-0.7035369873046875,1.2924124145507814,-0.6984475708007812,0.4427480916030534,-1.1068702290076335,0.5877862595419847
0.6556365966796875,0.33021331787109376,-0.7439529418945313,-0.8091603053435115,-0.7175572519083969,0.9083969465648855
1.0648855590820312,-0.762813720703125,0.465831298828125,-0.648854961832061,-0.1297709923664122,0.5954198473282443
0.3936813354492188,0.51013916015625,1.6468753051757814,0.022900763358778626,0.10687022900763359,0.46564885496183206
0.6798861694335938,0.8535250854492188,2.0300784301757813,0.030534351145038167,0.06870229007633588,0.1984732824427481
1.1777508544921875,0.9702822875976563,2.169288940429688,0.21374045801526717,-0.16793893129770993,0.15267175572519084
1.80344970703125,1.3947994995117188,1.7848883056640625,0.5343511450381679,-0.11450381679389313,0.2595419847328244
1.0837463378906251,1.1642788696289064,1.7956658935546876,-0.2595419847328244,-0.015267175572519083,-0.1450381679389313
1.40108642578125,0.8762777709960938,1.2939093017578125,-0.015267175572519083,0.0,-0.16793893129770993
1.385518798828125,1.1576925659179689,1.4828164672851563,0.21374045801526717,0.04580152671755725,0.12213740458015267
1.3816268920898438,1.4004876708984375,1.3942007446289064,-0.09923664122137404,0.16030534351145037,0.0
1.4462924194335938,1.316063232421875,1.5070660400390625,-0.11450381679389313,0.007633587786259542,0.13740458015267176
1.510059814453125,1.2960049438476564,1.4259347534179687,-0.1450381679389313,-0.06870229007633588,0.2213740458015267
1.184337158203125,1.375938720703125,1.528920593261719,-0.2748091603053435,-0.007633587786259542,0.022900763358778626
1.244212646484375,1.0163864135742189,1.3573773193359375,-0.022900763358778626,-0.08396946564885496,-0.061068702290076333
1.4256353759765625,1.1472143554687502,1.7405804443359376,0.007633587786259542,-0.24427480916030533,-0.11450381679389313
1.6498690795898439,1.054706726074219,1.7097445678710939,-0.04580152671755725,-0.183206106870229,-0.06870229007633588
1.7375866699218752,0.7119195556640625,1.4965878295898438,-0.2748091603053435,-0.11450381679389313,-0.16793893129770993
1.62142822265625,0.5451663208007813,1.55197265625,-0.05343511450381679,-0.030534351145038167,-0.061068702290076333
1.6351995849609375,0.4412823486328125,1.4962884521484376,0.1450381679389313,-0.030534351145038167,-0.07633587786259542
1.2989987182617189,0.59156982421875,1.4597644042968752,-0.0916030534351145,0.015267175572519083,-0.33587786259541985
1.0484197998046876,0.640667724609375,1.4367123413085938,0.21374045801526717,0.09923664122137404,-0.3893129770992366
1.1639794921875,1.5396981811523438,1.5645465087890627,0.16793893129770993,0.06870229007633588,-0.35877862595419846
1.1639794921875,1.5396981811523438,1.5645465087890627,0.16793893129770993,0.06870229007633588,-0.35877862595419846
1.4801220703125,-0.03502716064453125,0.9187893676757813,-0.4580152671755725,-0.26717557251908397,-0.24427480916030533
1.8660195922851563,-0.6942562866210937,-0.39996826171875,-0.0916030534351145,0.5190839694656488,-0.4961832061068702
1.9525396728515625,-0.1293310546875,-0.5457650756835938,0.6106870229007634,1.1755725190839694,-0.3511450381679389
1.4483880615234375,1.1361373901367189,-1.3289364624023439,0.8091603053435115,1.1450381679389312,-0.1984732824427481
0.24069946289062502,-0.20507354736328126,-1.435814208984375,-1.0534351145038168,1.1832061068702289,-0.7557251908396946
-2.036664733886719,0.257464599609375,-0.0437091064453125,-2.6564885496183206,1.4580152671755724,-2.381679389312977
0.5307962036132813,0.484991455078125,-0.3107537841796875,0.3129770992366412,-1.1832061068702289,2.015267175572519
2.6195526123046875,-0.8867559814453125,-0.1538800048828125,0.2748091603053435,0.05343511450381679,0.40458015267175573
2.099533996582031,-1.114582214355469,0.1886077880859375,0.11450381679389313,-0.19083969465648853,-0.030534351145038167
0.8972341918945312,-1.3828244018554687,0.4236190795898438,0.3282442748091603,-0.5267175572519084,-0.7099236641221374
-0.8804690551757813,-0.25656646728515625,-0.5595364379882812,0.5343511450381679,-1.1832061068702289,-1.0763358778625953
-1.0732681274414062,0.9819580078125001,-1.0918295288085937,1.4274809160305344,-0.5343511450381679,0.015267175572519083
1.1487112426757813,0.10568023681640626,-0.8307723999023438,-0.061068702290076333,-0.8625954198473282,0.0
2.3435266113281252,-0.8077203369140625,-0.07334747314453126,0.015267175572519083,-0.7175572519083969,0.20610687022900762
3.1386730957031252,-1.00351318359375,0.018860778808593753,-0.03816793893129771,0.23664122137404578,0.11450381679389313
2.0672012329101563,-0.14160552978515625,-0.7041357421875001,-0.11450381679389313,0.8549618320610687,0.16030534351145037
-0.2999761962890625,-0.118553466796875,-1.0651849365234376,0.04580152671755725,0.8931297709923663,0.7251908396946565
-0.748443603515625,-1.3786331176757813,-0.5622308349609375,-0.5267175572519084,1.3511450381679388,-1.732824427480916
1.0181826782226564,-0.25806335449218754,-0.7212002563476563,0.6259541984732824,-0.08396946564885496,0.8625954198473282
1.5202386474609375,-0.9340576171875,-0.5212161254882812,0.26717557251908397,-0.16030534351145037,0.37404580152671757
0.9142987060546875,-0.7394622802734375,-0.25926086425781253,0.34351145038167935,-0.16030534351145037,0.07633587786259542
-0.45295806884765627,-0.15537689208984376,-0.7415579223632813,0.022900763358778626,-0.9312977099236641,-0.3969465648854962
-0.6352789306640625,0.508941650390625,-0.6697073364257813,0.20610687022900762,-1.0229007633587786,-0.4580152671755725
0.4724176025390625,1.6052618408203125,-0.17603393554687502,-0.03816793893129771,-1.0916030534351144,0.8244274809160305
1.0136920166015626,-0.0437091064453125,0.3754193115234375,-0.7404580152671756,-0.282442748091603,0.4809160305343511
0.5182223510742188,-0.4858895874023438,1.4403048706054689,-0.5572519083969465,-0.19083969465648853,0.5725190839694656
0.38589752197265625,-0.2613565063476563,1.6768130493164064,-0.022900763358778626,0.09923664122137404,0.5190839694656488
0.3008743286132813,0.9250762939453125,2.209106140136719,0.03816793893129771,-0.20610687022900762,0.4809160305343511
0.99872314453125,1.618733825683594,1.5642471313476562,0.6946564885496183,-0.17557251908396945,0.732824427480916
1.610650634765625,1.8570382690429688,1.6510665893554688,0.7480916030534351,0.007633587786259542,0.32061068702290074
1.1954141235351563,2.578238525390625,1.093326416015625,-0.2900763358778626,0.47328244274809156,-0.2595419847328244
1.3588742065429689,1.0903326416015626,1.7142352294921877,-0.29770992366412213,0.03816793893129771,-0.19083969465648853
1.6558566284179688,1.417552185058594,1.0882369995117187,0.030534351145038167,-0.015267175572519083,0.183206106870229
1.4708413696289062,1.1175759887695313,1.3810281372070312,0.11450381679389313,0.16793893129770993,0.13740458015267176
1.5447875976562502,1.4465917968750002,1.4268328857421875,-0.030534351145038167,0.11450381679389313,0.06870229007633588
1.5390994262695312,1.30528564453125,1.5091616821289062,-0.25190839694656486,-0.11450381679389313,-0.04580152671755725
1.4675482177734376,1.2903167724609375,1.4696438598632813,-0.16030534351145037,-0.24427480916030533,-0.06870229007633588
1.5612533569335938,1.2307406616210939,1.4792239379882812,-0.0916030534351145,-0.23664122137404578,-0.07633587786259542
1.5178436279296876,1.0753637695312501,1.4567706298828125,-0.05343511450381679,-0.19083969465648853,-0.08396946564885496
1.5058685302734376,1.0005194091796876,1.7429754638671875,0.24427480916030533,-0.1297709923664122,-0.20610687022900762
1.68848876953125,1.1948153686523437,1.7076489257812502,0.07633587786259542,-0.2748091603053435,-0.16030534351145037
1.474134521484375,0.9888436889648438,1.542392578125,-0.1984732824427481,-0.183206106870229,-0.09923664122137404
1.686991882324219,0.6161187744140625,1.2960049438476564,0.015267175572519083,-0.10687022900763359,-0.022900763358778626
1.5082635498046877,0.6891668701171876,1.5408956909179687,0.0916030534351145,0.11450381679389313,-0.061068702290076333
1.4052777099609375,1.1211685180664064,1.2936099243164063,0.09923664122137404,0.0916030534351145,-0.04580152671755725
1.3873150634765625,1.1127859497070314,1.3229489135742187,-0.16030534351145037,0.007633587786259542,-0.1297709923664122
1.4684463500976563,1.4409036254882812,1.4986834716796875,-0.19083969465648853,0.05343511450381679,0.022900763358778626
1.3612692260742187,1.1265573120117187,1.2591815185546875,-0.21374045801526717,-0.09923664122137404,0.3511450381679389
1.5091616821289062,0.7852670288085938,1.2301419067382813,0.007633587786259542,0.05343511450381679,0.22900763358778625
1.5528707885742188,0.890947265625,1.4046789550781251,0.030534351145038167,-0.04580152671755725,-0.061068702290076333
1.6094531250000002,1.1633807373046876,1.5142510986328126,-0.061068702290076333,0.007633587786259542,-0.2213740458015267
1.2460089111328125,1.4971865844726564,2.0447479248046876,-0.20610687022900762,-0.06870229007633588,-0.2213740458015267
1.2301419067382813,0.5867797851562501,1.5109579467773437,-0.2595419847328244,-0.21374045801526717,-0.3282442748091603
2.11959228515625,-0.28500732421875,0.243094482421875,0.47328244274809156,0.2900763358778626,-0.7557251908396946
2.8946804809570312,-0.7786807250976563,-1.0322534179687501,-0.15267175572519084,1.198473282442748,-1.2366412213740459
2.203118591308594,2.5369244384765626,0.07454498291015625,0.4580152671755725,0.9618320610687022,0.4809160305343511
-0.319735107421875,-0.06466552734375,-0.7637118530273438,-0.648854961832061,1.465648854961832,-0.183206106870229
-1.1370355224609376,2.20581298828125,0.7939489746093751,-1.083969465648855,-0.03816793893129771,-0.16030534351145037
0.9864486694335938,-0.13442047119140627,0.22034179687500002,0.8854961832061068,0.1297709923664122,0.83206106870229
1.6304095458984376,-0.377215576171875,-0.045205993652343755,-0.41221374045801523,-0.06870229007633588,0.42748091603053434
1.1936178588867188,-1.1630813598632812,0.1682501220703125,-0.05343511450381679,0.03816793893129771,-0.16793893129770993
-0.17124389648437502,-0.7897576904296876,0.11765533447265626,-0.1297709923664122,-0.7175572519083969,-0.6641221374045801
-2.1869522094726563,1.122964782714844,0.247884521484375,1.2671755725190839,-1.198473282442748,-0.6106870229007634
2.1671932983398436,-0.7753875732421875,-0.484991455078125,-0.47328244274809156,-0.21374045801526717,0.16793893129770993
1.849853210449219,-1.39869140625,0.32183074951171875,0.20610687022900762,0.5190839694656488,0.17557251908396945
1.849853210449219,-1.39869140625,0.32183074951171875,0.20610687022900762,0.5190839694656488,0.17557251908396945
1.849853210449219,-1.39869140625,0.32183074951171875,0.20610687022900762,0.5190839694656488,0.17557251908396945
1.849853210449219,-1.39869140625,0.32183074951171875,0.20610687022900762,0.5190839694656488,0.17557251908396945
1.849853210449219,-1.39869140625,0.32183074951171875,0.20610687022900762,0.5190839694656488,0.17557251908396945
1.4702426147460939,-1.4720388793945314,0.140108642578125,-0.015267175572519083,-0.08396946564885496,0.022900763358778626
0.6990463256835938,-0.8385562133789063,0.7050338745117188,0.564885496183206,-0.8778625954198473,-0.24427480916030533
-1.2564871215820312,1.3037887573242188,-2.027084655761719,-0.24427480916030533,-1.3282442748091603,0.8625954198473282
-0.025746459960937502,0.5763015747070312,-1.5133529663085938,-0.8167938931297709,-0.40458015267175573,0.8015267175572519
0.8268804931640625,-0.1071771240234375,-0.30267059326171875,-0.7633587786259541,-0.1450381679389313,0.6946564885496183
0.8879534912109376,-0.11047027587890626,1.7705181884765626,-0.09923664122137404,0.17557251908396945,0.20610687022900762
1.0612930297851564,0.4032614135742188,1.5834072875976564,0.1450381679389313,0.12213740458015267,0.061068702290076333
1.4639556884765625,2.1743783569335937,1.136436767578125,0.12213740458015267,0.2748091603053435,0.183206106870229
0.8675958251953125,1.435814208984375,1.3870156860351563,-0.3893129770992366,0.10687022900763359,-0.03816793893129771
1.3756393432617189,0.8879534912109376,1.3906082153320314,-0.183206106870229,-0.022900763358778626,-0.015267175572519083
1.4923965454101564,1.2397219848632812,1.4600637817382813,0.03816793893129771,0.05343511450381679,0.03816793893129771
1.5726296997070313,1.22385498046875,1.3882131958007813,0.0,0.030534351145038167,0.022900763358778626
1.2355307006835938,1.1900253295898438,1.5343093872070312,0.007633587786259542,-0.03816793893129771,-0.015267175572519083
1.153201904296875,1.0942245483398438,1.5929873657226563,-0.0916030534351145,-0.24427480916030533,-0.16793893129770993
1.3265414428710938,1.004710693359375,1.5953823852539064,0.06870229007633588,-0.26717557251908397,-0.13740458015267176
1.5477813720703126,0.7280859375000001,1.8830841064453125,-0.030534351145038167,-0.09923664122137404,-0.04580152671755725
1.635498962402344,0.8822653198242187,1.3582754516601563,0.07633587786259542,0.04580152671755725,0.09923664122137404
1.6343014526367188,0.6747967529296875,1.2648696899414062,0.20610687022900762,0.1297709923664122,0.12213740458015267
1.0139913940429688,0.8843609619140625,1.6193325805664063,0.33587786259541985,0.07633587786259542,-0.38167938931297707
1.35797607421875,1.4376104736328126,1.2253518676757813,-0.366412213740458,-0.2748091603053435,-0.3969465648854962
1.8241067504882813,0.00239501953125,0.7241940307617187,0.07633587786259542,0.08396946564885496,-0.1984732824427481
2.0731887817382812,-0.750838623046875,-0.128133544921875,0.7786259541984732,0.19083969465648853,-0.007633587786259542
1.7289047241210938,0.046702880859375004,-1.7753082275390626,-0.022900763358778626,0.8931297709923663,-0.4580152671755725
0.08801696777343751,1.2989987182617189,-1.3971945190429689,-0.37404580152671757,1.9312977099236641,-0.7251908396946565
-0.013771362304687501,0.7008425903320313,-0.499361572265625,-2.015267175572519,0.282442748091603,-0.29770992366412213
1.982776794433594,-1.41545654296875,-0.0149688720703125,0.16793893129770993,-0.21374045801526717,0.1984732824427481
1.5169454956054689,-1.6363970947265625,-0.061072998046875,0.0916030534351145,-0.3969465648854962,-0.549618320610687
-1.2409194946289064,0.2817141723632813,-0.6664141845703125,1.465648854961832,-0.9007633587786259,-0.1297709923664122
-0.6188131713867188,0.26884094238281253,-0.6951544189453125,0.46564885496183206,-1.0076335877862594,0.48854961832061067
2.559078369140625,-1.1505075073242188,-0.33410522460937503,-0.2748091603053435,-0.23664122137404578,-0.007633587786259542
3.1323861694335937,-1.0891351318359375,0.02155517578125,-0.5801526717557252,0.4961832061068702,-0.19083969465648853
1.8773959350585938,-1.1463162231445314,0.30835876464843753,0.6641221374045801,1.0534351145038168,0.24427480916030533
0.017663269042968752,-1.4432986450195313,-1.1337423706054688,0.46564885496183206,0.183206106870229,-0.8702290076335878
-2.5102798461914064,1.0867401123046876,-3.081192626953125,-2.6412213740458013,-0.41221374045801523,-1.4351145038167938
-0.33829650878906253,-2.628533935546875,-2.22018310546875,0.3282442748091603,1.1908396946564885,1.0076335877862594
0.5278024291992188,-1.6337026977539064,0.15088623046875002,-0.40458015267175573,0.6335877862595419,0.83206106870229
1.6085549926757814,-2.089355163574219,0.37392242431640627,0.19083969465648853,-0.1297709923664122,-0.022900763358778626
0.3209326171875,-0.3993695068359375,-0.5263055419921875,0.282442748091603,-0.8778625954198473,0.022900763358778626
-0.47151947021484375,0.6274951171875001,-1.4938934326171875,0.007633587786259542,-1.3129770992366412,0.3511450381679389
0.7529342651367188,0.27872039794921877,0.23171813964843752,-0.9541984732824427,-0.4427480916030534,0.564885496183206
0.7409591674804688,0.178428955078125,1.2882211303710938,0.022900763358778626,0.1450381679389313,0.42748091603053434
0.9786648559570313,1.701661376953125,1.490600280761719,0.46564885496183206,0.1297709923664122,0.32061068702290074
1.1097921752929687,1.4974859619140626,1.191522216796875,-0.37404580152671757,0.07633587786259542,-0.17557251908396945
1.1157797241210938,0.7873626708984376,1.1361373901367189,-0.0916030534351145,-0.22900763358778625,-0.07633587786259542
1.3205538940429689,1.3744418334960937,1.46335693359375,0.007633587786259542,-0.20610687022900762,-0.08396946564885496
1.447789306640625,1.2421170043945313,1.33402587890625,-0.13740458015267176,0.030534351145038167,0.05343511450381679
1.347198486328125,1.2064910888671876,1.122964782714844,-0.1297709923664122,0.11450381679389313,0.11450381679389313
1.0606942749023438,1.1235635375976563,1.2304412841796875,0.07633587786259542,0.03816793893129771,0.061068702290076333
1.2052935791015627,1.2217593383789063,1.422342224121094,0.183206106870229,-0.1297709923664122,-0.04580152671755725
1.3055850219726564,1.3597723388671876,1.3983920288085938,-0.07633587786259542,-0.0916030534351145,-0.08396946564885496
1.304088134765625,1.2259506225585939,1.3061837768554687,-0.25190839694656486,-0.061068702290076333,-0.04580152671755725
1.304088134765625,1.2259506225585939,1.3061837768554687,-0.25190839694656486,-0.061068702290076333,-0.04580152671755725
1.304088134765625,1.2259506225585939,1.3061837768554687,-0.25190839694656486,-0.061068702290076333,-0.04580152671755725
1.304088134765625,1.2259506225585939,1.3061837768554687,-0.25190839694656486,-0.061068702290076333,-0.04580152671755725
1.304088134765625,1.2259506225585939,1.3061837768554687,-0.25190839694656486,-0.061068702290076333,-0.04580152671755725
1.5064672851562502,-0.53887939453125,0.5188211059570312,-0.06870229007633588,0.3053435114503817,-0.282442748091603
1.4618600463867188,-1.0352471923828126,-0.42152343750000004,0.6335877862595419,0.3129770992366412,-0.7938931297709924
-0.7385641479492188,0.33290771484375004,-1.72680908203125,-0.9541984732824427,0.8244274809160305,-0.9465648854961831
-0.25147705078125,0.3499722290039063,-1.047821044921875,-0.9770992366412213,0.2748091603053435,1.0381679389312977
1.4004876708984375,-1.8854791259765626,0.44786865234375,-0.06870229007633588,0.16793893129770993,0.4580152671755725
0.7750881958007813,-1.5271243286132814,0.36284545898437504,0.35877862595419846,-0.7633587786259541,-0.3129770992366412
-0.95561279296875,0.3403921508789063,-1.6396902465820313,0.5114503816793893,-1.5267175572519083,-0.12213740458015267
0.5948629760742188,0.6493496704101562,-1.738484802246094,-0.20610687022900762,-0.9312977099236641,-0.015267175572519083
2.5809329223632815,-1.4672488403320314,1.1286529541015626,0.07633587786259542,0.16030534351145037,0.03816793893129771
2.1647982788085938,-1.3295352172851562,-0.056582336425781254,0.1450381679389313,0.6106870229007634,-0.6106870229007634
-0.7511380004882813,1.8049465942382814,-3.2527359008789065,0.007633587786259542,1.66412213740458,0.9312977099236641
-0.41074584960937505,-1.0364447021484375,-1.2364288330078126,-0.45038167938931295,0.7175572519083969,-0.5267175572519084
1.0915301513671876,-1.1951147460937501,-0.8484356689453125,0.8702290076335878,0.16793893129770993,1.1221374045801527
1.3457015991210939,-1.6774118041992188,-0.1694476318359375,0.38167938931297707,-0.41221374045801523,-0.3893129770992366
-0.592767333984375,0.6562353515625,-1.3804293823242189,0.7557251908396946,-0.9007633587786259,-0.16030534351145037
-0.06556365966796876,1.1846365356445314,-1.1262579345703125,0.04580152671755725,-1.3969465648854962,0.8549618320610687
0.2568658447265625,0.2520758056640625,0.16615447998046876,-1.083969465648855,-0.648854961832061,0.8473282442748091
0.6451583862304687,-0.257464599609375,1.5319143676757814,-0.4427480916030534,-0.20610687022900762,0.4351145038167939
0.8041278076171875,0.6137237548828125,2.5872198486328126,-0.10687022900763359,0.022900763358778626,-0.06870229007633588
1.0948233032226562,1.0307565307617188,2.43573486328125,0.21374045801526717,-0.015267175572519083,0.0916030534351145
1.0361453247070314,1.3504916381835939,2.24173828125,-0.07633587786259542,0.0916030534351145,0.061068702290076333
1.2975018310546875,1.0211764526367189,1.5411950683593751,0.015267175572519083,0.08396946564885496,0.0916030534351145
1.4367123413085938,1.249002685546875,1.6995657348632813,0.1297709923664122,0.061068702290076333,0.1297709923664122
1.5693365478515626,1.2516970825195313,1.5953823852539064,0.022900763358778626,-0.007633587786259542,0.0916030534351145
1.3522879028320314,1.110091552734375,1.5364050292968752,0.0,-0.03816793893129771,0.030534351145038167
1.3064831542968751,0.9969268798828126,1.5396981811523438,0.06870229007633588,-0.1297709923664122,-0.17557251908396945
1.6750167846679689,1.0544073486328125,1.5645465087890627,0.1984732824427481,-0.3053435114503817,-0.07633587786259542
1.5678396606445313,0.849034423828125,1.4549743652343752,-0.2595419847328244,-0.1450381679389313,-0.26717557251908397
1.4064752197265626,0.8616082763671875,1.62142822265625,-0.1297709923664122,-0.030534351145038167,-0.015267175572519083
1.665436706542969,0.6879693603515625,1.2409194946289064,0.04580152671755725,-0.04580152671755725,0.0916030534351145
1.4226416015625,0.8702902221679688,1.3858181762695314,-0.015267175572519083,0.183206106870229,-0.015267175572519083
1.2555889892578125,0.6167175292968751,0.9433383178710938,0.4427480916030534,-0.022900763358778626,-0.3511450381679389
0.8795709228515626,-0.7574249267578126,0.4068539428710938,-0.5801526717557252,0.5801526717557252,-1.3587786259541985
0.1634600830078125,-0.6541397094726563,0.42571472167968755,0.7938931297709924,0.8702290076335878,-0.9312977099236641
0.02185455322265625,1.5528707885742188,1.447489929199219,2.4122137404580153,-0.06870229007633588,0.022900763358778626
1.7675244140625002,-1.7857864379882813,0.16136444091796875,0.007633587786259542,0.1450381679389313,-0.07633587786259542
1.3019924926757813,-1.2163705444335937,0.40475830078125,0.24427480916030533,0.07633587786259542,-0.015267175572519083
1.18074462890625,-0.9457333374023438,0.21884490966796877,0.030534351145038167,0.0,-0.030534351145038167
1.0951226806640626,-0.9669891357421876,0.17124389648437502,-0.10687022900763359,-0.022900763358778626,-0.007633587786259542
0.9822573852539063,-0.9160949707031251,0.07155120849609375,-0.06870229007633588,-0.015267175572519083,-0.007633587786259542
0.8924441528320313,-0.8295748901367188,0.009580078125,0.04580152671755725,-0.022900763358778626,-0.022900763358778626
0.8325686645507813,-0.7167095947265625,-0.08113128662109376,-0.04580152671755725,-0.015267175572519083,-0.007633587786259542
0.7301815795898438,-0.6828799438476563,-0.15717315673828125,-0.022900763358778626,-0.007633587786259542,-0.007633587786259542
0.6433621215820313,-0.5284011840820313,-0.25357269287109374,-0.03816793893129771,-0.015267175572519083,0.007633587786259542
0.5730084228515625,-0.4721182250976563,-0.28410919189453127,-0.05343511450381679,-0.007633587786259542,0.007633587786259542