accel.x,accel.y,accel.z,gyro.x,gyro.y,gyro.z
1.2073892211914063,-0.07155120849609375,0.34338592529296874,-0.0916030534351145,1.4961832061068703,-0.03816793893129771
0.8292755126953125,-0.27812164306640624,1.2202624511718752,-0.061068702290076333,1.5038167938931297,-0.11450381679389313
0.5993536376953126,-0.15178436279296875,1.20948486328125,-0.282442748091603,0.8167938931297709,-0.04580152671755725
0.7849676513671875,-0.3400927734375,0.42810974121093753,0.7709923664122137,0.6641221374045801,0.030534351145038167
1.0062075805664064,-0.6676116943359376,-0.9589059448242188,1.3358778625954197,0.48854961832061067,0.11450381679389313
1.2855267333984375,-0.7188052368164063,-0.5769003295898438,0.7557251908396946,0.17557251908396945,-0.06870229007633588
1.4675482177734376,-1.6744180297851563,-0.14998809814453126,1.1832061068702289,0.15267175572519084,-0.13740458015267176
1.24541015625,-1.33402587890625,0.1454974365234375,0.8091603053435115,0.03816793893129771,-0.24427480916030533
1.5238311767578125,-1.0169851684570312,0.6583309936523438,1.2366412213740459,0.030534351145038167,-0.1984732824427481
1.0960208129882814,-0.6888674926757813,1.5334112548828125,1.2442748091603053,-0.21374045801526717,-0.183206106870229
0.839454345703125,-0.1011895751953125,1.9651135253906251,-0.0916030534351145,-0.9618320610687022,-0.10687022900763359
0.724493408203125,-0.3607498168945313,1.3669573974609375,-0.282442748091603,-1.3740458015267174,-0.24427480916030533
0.6529421997070313,-0.39817199707031253,0.8616082763671875,0.3511450381679389,-1.4961832061068703,-0.3053435114503817
0.7957452392578125,-0.11076965332031251,0.01945953369140625,0.47328244274809156,-1.3511450381679388,0.08396946564885496
0.9226812744140626,-0.4685256958007813,-0.197589111328125,0.16030534351145037,-1.16793893129771,0.10687022900763359
1.2600796508789063,-0.27033782958984376,-0.0017962646484375,0.4809160305343511,-0.33587786259541985,0.38167938931297707
1.136436767578125,-0.061671752929687504,0.08771759033203125,0.1450381679389313,-0.061068702290076333,0.34351145038167935
1.9190093994140627,-0.5056484985351563,0.6825805664062501,-0.22900763358778625,0.6793893129770993,0.3053435114503817
1.0385403442382812,-0.21884490966796877,0.5227130126953126,-0.04580152671755725,1.2748091603053435,0.5038167938931297
0.9409432983398438,-0.39308258056640627,0.3251239013671875,-0.29770992366412213,1.4580152671755724,0.5801526717557252
0.9056167602539062,-0.6068380737304688,1.1391311645507813,-0.48854961832061067,1.2519083969465647,0.732824427480916
0.9684860229492188,0.011975097656250001,1.5765216064453125,-0.6946564885496183,0.3969465648854962,0.3969465648854962
1.1061996459960939,0.8089178466796876,-0.6963519287109375,0.22900763358778625,0.13740458015267176,0.32061068702290074
1.2747491455078126,0.6703060913085938,-0.5766009521484375,-0.7709923664122137,0.0,0.16793893129770993
1.5989749145507812,0.5050497436523438,-0.06346801757812501,-0.47328244274809156,0.08396946564885496,0.061068702290076333
1.3271401977539063,0.7523355102539063,-0.2951861572265625,0.35877862595419846,-0.015267175572519083,-0.007633587786259542
1.1139834594726563,0.748443603515625,-0.3203338623046875,0.12213740458015267,-0.022900763358778626,-0.022900763358778626
1.2451107788085938,0.6065386962890625,-0.4816983032226563,-0.061068702290076333,-0.03816793893129771,-0.007633587786259542
1.2034973144531251,0.5505551147460938,-0.4796026611328125,0.030534351145038167,0.015267175572519083,-0.007633587786259542
1.2352313232421877,0.4724176025390625,-0.5801934814453126,0.03816793893129771,0.022900763358778626,0.0
1.1106903076171875,0.5514532470703125,-0.5909710693359376,-0.11450381679389313,0.022900763358778626,0.0
1.1190728759765625,0.602347412109375,-0.7933502197265625,-0.07633587786259542,0.007633587786259542,0.04580152671755725
1.038240966796875,0.8915460205078125,-0.9849517822265625,-0.7099236641221374,-0.1450381679389313,0.06870229007633588
0.8846603393554688,0.8391549682617188,-0.46493316650390626,-1.0916030534351144,-0.32061068702290074,0.1450381679389313
-0.2844085693359375,0.5873785400390625,0.5727090454101563,-0.732824427480916,-0.8549618320610687,-0.09923664122137404
-0.9786648559570313,0.6565347290039063,0.9475296020507813,-0.22900763358778625,-1.564885496183206,-0.41221374045801523
-0.9235794067382813,0.9678872680664063,0.006286926269531251,0.29770992366412213,-1.4885496183206106,-0.19083969465648853
-0.23740631103515628,0.9095086669921876,0.21674926757812502,0.3893129770992366,-1.0381679389312977,-0.03816793893129771
0.5670208740234375,1.0523117065429688,0.9969268798828126,0.13740458015267176,-0.6259541984732824,0.0
0.67300048828125,0.918489990234375,1.3133688354492188,0.23664122137404578,-0.29770992366412213,0.3282442748091603
0.8900491333007813,0.9969268798828126,1.00351318359375,-0.11450381679389313,0.1297709923664122,0.2595419847328244
1.3259426879882814,0.4996609497070313,0.7996371459960938,-0.022900763358778626,0.916030534351145,0.38167938931297707
1.3921051025390625,0.3673361206054688,0.9481283569335938,0.09923664122137404,1.3435114503816794,0.20610687022900762
1.1870315551757813,0.5278024291992188,0.5322930908203125,-0.05343511450381679,1.6412213740458015,0.13740458015267176
0.7008425903320313,-0.1790277099609375,1.3594729614257812,-0.07633587786259542,1.282442748091603,-0.03816793893129771
0.5774990844726563,0.37931121826171876,1.5798147583007813,-0.09923664122137404,0.5267175572519084,-0.34351145038167935
0.5897735595703125,-0.0161663818359375,0.3826043701171875,0.9083969465648855,0.40458015267175573,-0.15267175572519084
1.2412188720703126,-0.19070343017578126,-0.6948550415039063,1.1526717557251909,0.4809160305343511,0.015267175572519083
0.9259744262695313,0.2436932373046875,-0.9008267211914063,0.732824427480916,0.23664122137404578,-0.10687022900763359
1.3582754516601563,-0.6984475708007812,-0.3972738647460938,0.5419847328244275,0.10687022900763359,0.007633587786259542
1.1295510864257814,-1.069376220703125,0.2197430419921875,0.5877862595419847,0.04580152671755725,-0.03816793893129771
1.4331198120117188,-1.4810202026367187,0.11047027587890626,0.8625954198473282,0.030534351145038167,-0.2213740458015267
1.4031820678710938,-1.9932550048828126,0.6472540283203125,1.9694656488549618,0.022900763358778626,-0.5877862595419847
1.0696755981445314,-0.729283447265625,1.76512939453125,1.4580152671755724,-0.6870229007633587,-0.32061068702290074
-0.0473016357421875,-0.5679190063476562,1.7160314941406252,0.22900763358778625,-1.5419847328244274,-0.3053435114503817
0.20447479248046876,-0.8804690551757813,0.2805166625976563,0.6259541984732824,-1.4961832061068703,-0.2213740458015267
0.8346643066406251,0.02484832763671875,-0.849034423828125,-0.2213740458015267,-1.1603053435114503,-0.11450381679389313
1.49688720703125,-0.6457571411132813,-0.147293701171875,0.6183206106870229,-0.7099236641221374,-0.04580152671755725
1.256187744140625,-0.144898681640625,0.00029937744140625,-0.030534351145038167,-0.2748091603053435,0.06870229007633588
1.4923965454101564,-0.2625540161132813,0.5200186157226563,0.17557251908396945,0.5877862595419847,0.20610687022900762
1.5250286865234375,-0.5538482666015625,0.4793032836914063,0.3511450381679389,1.1603053435114503,0.22900763358778625
1.5657440185546876,-0.7702981567382813,0.4272116088867188,0.04580152671755725,1.7251908396946565,0.24427480916030533
1.0053094482421876,-0.7125183105468751,0.7595205688476563,-0.7557251908396946,1.4274809160305344,0.24427480916030533
0.8577163696289063,0.046403503417968756,1.2085867309570313,-1.2213740458015268,0.42748091603053434,0.2900763358778626
1.3181588745117188,0.662222900390625,0.28111541748046875,-0.5725190839694656,-0.0916030534351145,0.4427480916030534
1.1466156005859376,0.027542724609375003,-0.3347039794921875,0.13740458015267176,0.07633587786259542,0.282442748091603
1.4627581787109376,0.8155041503906251,-0.24758514404296877,-0.6412213740458015,-0.04580152671755725,0.061068702290076333
1.430724792480469,0.9529183959960938,0.4397854614257813,-0.19083969465648853,-0.04580152671755725,0.007633587786259542
1.196312255859375,0.8044271850585938,-0.18411712646484377,0.21374045801526717,0.030534351145038167,0.03816793893129771
1.1825408935546875,0.7370672607421875,-0.3811074829101563,0.10687022900763359,-0.015267175572519083,0.0
1.2307406616210939,0.83586181640625,-0.3373983764648438,0.061068702290076333,-0.007633587786259542,0.0
1.23822509765625,0.6104306030273438,-0.46193939208984375,0.030534351145038167,0.0,-0.015267175572519083
1.18074462890625,0.6367758178710938,-0.4209246826171875,0.07633587786259542,0.0,0.0
1.1624826049804688,0.5287005615234375,-0.50055908203125,0.0,-0.007633587786259542,-0.007633587786259542
1.1154803466796877,0.4544549560546875,-0.5427713012695313,0.007633587786259542,-0.007633587786259542,-0.015267175572519083
0.8696914672851563,0.7125183105468751,-0.79275146484375,-0.3053435114503817,-0.04580152671755725,0.0
0.77838134765625,0.7673043823242188,-0.6038442993164063,-0.282442748091603,-0.16793893129770993,0.10687022900763359
0.7346722412109375,0.9268725585937501,-0.2900967407226563,-0.7633587786259541,-0.549618320610687,0.12213740458015267
-0.6385720825195312,0.8559201049804688,0.18920654296875,-0.7557251908396946,-1.1068702290076335,0.030534351145038167
-1.052611083984375,0.9325607299804688,0.2966830444335938,-0.23664122137404578,-1.5267175572519083,0.022900763358778626
-0.9406439208984375,0.7960446166992188,0.4355941772460938,-0.07633587786259542,-1.6717557251908397,0.015267175572519083
-0.125738525390625,0.6954537963867188,0.5325924682617188,0.3053435114503817,-1.1221374045801527,0.09923664122137404
0.5942642211914063,1.028660888671875,0.9376501464843751,0.11450381679389313,-0.8244274809160305,0.061068702290076333
0.5649252319335938,1.2283456420898438,1.3382171630859376,0.24427480916030533,-0.5572519083969465,0.22900763358778625
1.6792080688476563,0.2924917602539063,0.70174072265625,0.20610687022900762,0.9618320610687022,0.1297709923664122
1.4858102416992187,0.15238311767578125,0.590372314453125,-0.08396946564885496,1.648854961832061,0.030534351145038167
0.5751040649414063,0.23171813964843752,1.1355386352539063,-0.1297709923664122,1.3435114503816794,-0.16793893129770993
0.2233355712890625,0.47900390625,1.6579522705078127,-0.3053435114503817,0.7862595419847328,0.007633587786259542
0.8804690551757813,0.4125421142578125,0.6092330932617188,0.7862595419847328,0.6870229007633587,0.19083969465648853
0.81670166015625,0.6744973754882813,-0.781973876953125,0.7022900763358778,0.5267175572519084,0.23664122137404578
0.9816586303710938,-0.8122109985351563,-0.18950592041015626,0.6183206106870229,0.09923664122137404,-0.061068702290076333
1.6052618408203125,-0.7191046142578126,-1.005908203125,1.4427480916030533,0.09923664122137404,0.06870229007633588
1.4076727294921876,-1.0145901489257814,-0.6005511474609375,0.564885496183206,0.007633587786259542,-0.13740458015267176
1.268162841796875,-1.1433224487304687,-0.13262420654296875,0.6412213740458015,0.12213740458015267,-0.20610687022900762
1.0606942749023438,-0.664617919921875,0.12783416748046875,1.015267175572519,-0.007633587786259542,-0.09923664122137404
1.443897399902344,-1.4343173217773437,1.0451266479492187,0.7480916030534351,-0.19083969465648853,-0.2900763358778626
0.5053491210937501,-1.44898681640625,1.2972024536132813,0.2595419847328244,-0.8473282442748091,-0.7709923664122137
-0.10837463378906251,-0.40236328125000004,0.8220904541015626,-0.015267175572519083,-1.366412213740458,-1.0763358778625953
0.7682025146484376,0.37931121826171876,-0.5508544921875,1.213740458015267,-1.2442748091603053,-0.7404580152671756
1.3801300048828127,0.06256988525390625,-0.16555572509765626,0.06870229007633588,-0.9847328244274809,-0.282442748091603
1.6343014526367188,-0.42302032470703127,0.11945159912109375,0.20610687022900762,-0.5877862595419847,0.030534351145038167
1.542093200683594,-0.022752685546875002,0.0652642822265625,-0.183206106870229,-0.3129770992366412,0.16793893129770993
1.490899658203125,-0.12005035400390626,0.2775228881835938,0.19083969465648853,-0.007633587786259542,0.3511450381679389
1.5007791137695314,-0.31105316162109375,0.37212615966796875,0.2595419847328244,0.3969465648854962,0.5343511450381679
1.4729370117187501,-0.5673202514648438,0.6864724731445313,0.4427480916030534,0.7557251908396946,0.46564885496183206
1.1837384033203127,-0.5691165161132813,0.0089813232421875,0.22900763358778625,1.6030534351145038,0.6793893129770993
0.9774673461914063,-1.1768527221679688,0.2808160400390625,-0.4961832061068702,1.8778625954198473,0.7022900763358778
0.7828720092773438,-0.7517367553710937,1.234632568359375,-0.9312977099236641,1.1221374045801527,0.5877862595419847
0.7738906860351563,-0.18291961669921875,1.8007553100585938,-0.6106870229007634,0.4351145038167939,0.2748091603053435
1.0127938842773438,0.868194580078125,0.6960525512695312,-0.6717557251908397,0.0,0.3053435114503817
1.1217672729492187,0.9636959838867188,-0.31793884277343754,-0.06870229007633588,0.09923664122137404,0.26717557251908397
1.4112652587890626,0.8699908447265625,-0.18920654296875,-0.46564885496183206,-0.007633587786259542,0.061068702290076333
1.4349160766601563,0.7050338745117188,0.06795867919921875,-0.26717557251908397,-0.007633587786259542,0.030534351145038167
1.4283297729492188,0.7107220458984376,0.04071533203125,0.15267175572519084,0.007633587786259542,0.007633587786259542
1.2927117919921876,0.9666897583007813,-0.31853759765625,0.12213740458015267,0.007633587786259542,0.015267175572519083
1.3058843994140625,0.6008505249023438,-0.3445834350585938,-0.061068702290076333,-0.007633587786259542,-0.007633587786259542
1.2747491455078126,0.561632080078125,-0.40924896240234376,0.061068702290076333,-0.007633587786259542,-0.022900763358778626
1.2247531127929687,0.6643185424804687,-0.48139892578125004,-0.022900763358778626,0.0,-0.015267175572519083
0.8125103759765625,0.8517288208007813,-0.41763153076171877,-0.2748091603053435,-0.282442748091603,0.061068702290076333
0.6637197875976563,1.210682373046875,-0.5828878784179687,-1.4045801526717556,-0.6717557251908397,0.007633587786259542
-0.41463775634765626,0.5694158935546876,0.5442681884765626,-0.4580152671755725,-1.0763358778625953,-0.26717557251908397
-1.0029144287109375,0.5460644531250001,0.48828460693359377,0.6183206106870229,-1.465648854961832,-0.46564885496183206
-0.8307723999023438,0.5068460083007813,0.8391549682617188,0.3053435114503817,-1.5267175572519083,-0.1297709923664122
-0.35476226806640626,0.4628375244140625,0.8325686645507813,0.282442748091603,-1.2900763358778626,0.061068702290076333
0.054187316894531254,0.8301736450195313,0.6523434448242188,0.09923664122137404,-1.0305343511450382,0.07633587786259542
0.5439688110351563,1.1023077392578124,1.2723541259765625,0.38167938931297707,-0.7251908396946565,0.1984732824427481
0.9813592529296875,0.7217990112304687,0.8523275756835937,0.24427480916030533,0.17557251908396945,0.4961832061068702
1.4259347534179687,0.49097900390625004,0.7711962890625,0.15267175572519084,0.7786259541984732,0.3969465648854962
1.4926959228515626,0.164058837890625,0.4197271728515625,0.16793893129770993,2.1068702290076335,0.3969465648854962
1.2699591064453126,-0.3703298950195313,1.2112811279296876,0.22900763358778625,1.7022900763358777,-0.09923664122137404
0.9104067993164063,-0.18142272949218752,1.833088073730469,0.015267175572519083,0.9236641221374046,-0.32061068702290074
0.781973876953125,-0.276624755859375,0.5062472534179687,0.9007633587786259,0.732824427480916,-0.17557251908396945
0.6879693603515625,0.15956817626953126,-1.0687774658203126,1.5114503816793892,0.5343511450381679,-0.10687022900763359
1.629810791015625,-1.026265869140625,-0.6613247680664063,1.2061068702290076,0.1984732824427481,0.030534351145038167
1.324146423339844,-0.9577084350585938,-0.42421783447265626,0.8244274809160305,0.03816793893129771,-0.10687022900763359
1.3618679809570313,-1.0690768432617188,0.06466552734375,0.549618320610687,0.11450381679389313,-0.25190839694656486
1.61184814453125,-1.1687695312500002,0.2856060791015625,1.4198473282442747,0.16793893129770993,-0.1984732824427481
1.2891192626953125,0.47181884765625004,0.619112548828125,0.20610687022900762,-0.10687022900763359,-0.183206106870229
1.1193722534179689,-1.2723541259765625,1.1867321777343751,0.007633587786259542,-0.5419847328244275,-0.4198473282442748
0.324525146484375,-1.2960049438476564,1.7992584228515627,0.8702290076335878,-1.1526717557251909,-0.7022900763358778
-0.08831634521484376,-0.12723541259765625,0.8086184692382813,0.061068702290076333,-1.7099236641221374,-0.7938931297709924
0.4397854614257813,0.031734008789062504,-0.5014572143554688,0.564885496183206,-1.3358778625954197,-0.5190839694656488
1.199605407714844,-0.355660400390625,0.16375946044921877,0.46564885496183206,-0.47328244274809156,0.0916030534351145
1.4681469726562502,-0.5607339477539063,-0.13172607421875002,0.23664122137404578,0.8549618320610687,0.35877862595419846
1.5660433959960938,-0.9690847778320313,0.15238311767578125,-0.09923664122137404,1.618320610687023,0.23664122137404578
1.2451107788085938,-0.7655081176757813,0.199984130859375,-0.46564885496183206,1.8091603053435115,0.549618320610687
0.925675048828125,-0.365240478515625,0.7777825927734375,-0.5038167938931297,1.580152671755725,0.29770992366412213
0.8879534912109376,-0.36853363037109377,1.39869140625,-0.916030534351145,0.9465648854961831,0.41221374045801523
1.5025753784179687,0.32183074951171875,0.8957373046875,-0.6106870229007634,0.4961832061068702,0.42748091603053434
0.89813232421875,0.43379791259765627,0.050295410156250005,-0.282442748091603,0.19083969465648853,0.3969465648854962
1.4037808227539064,0.5272036743164062,-0.3418890380859375,-0.83206106870229,0.07633587786259542,0.23664122137404578
1.6561560058593752,0.34727783203125,-0.09789642333984376,-0.41221374045801523,0.04580152671755725,0.007633587786259542
1.2049942016601562,0.7705975341796876,0.3113525390625,-0.2748091603053435,0.0,-0.030534351145038167
1.5307168579101564,0.6397695922851563,-0.006286926269531251,0.015267175572519083,-0.07633587786259542,0.05343511450381679
1.325643310546875,0.6804849243164063,-0.3849993896484375,0.07633587786259542,0.022900763358778626,-0.05343511450381679
1.3148657226562501,0.882564697265625,-0.20178039550781252,0.007633587786259542,-0.015267175572519083,0.022900763358778626
1.3349240112304688,0.5301974487304688,-0.41703277587890625,-0.030534351145038167,-0.015267175572519083,-0.015267175572519083
1.2499008178710938,0.746048583984375,-0.4014651489257813,-0.06870229007633588,-0.022900763358778626,0.007633587786259542
1.2576846313476564,0.5589376831054688,-0.5298980712890625,-0.0916030534351145,0.007633587786259542,0.0
1.1325448608398438,0.6577322387695312,-0.48259643554687504,-0.03816793893129771,-0.030534351145038167,0.0
1.1490106201171875,0.87897216796875,-0.45116180419921875,-0.282442748091603,-0.15267175572519084,-0.007633587786259542
0.8768765258789063,0.8265811157226562,-0.23022125244140626,-0.5343511450381679,-0.3893129770992366,-0.022900763358778626
-0.14340179443359377,0.6421646118164063,0.1981878662109375,-0.0916030534351145,-0.9236641221374046,-0.022900763358778626
-0.923280029296875,0.7128176879882813,0.3814068603515625,-0.32061068702290074,-1.4580152671755724,-0.19083969465648853
-0.9538165283203125,0.5119354248046876,0.4712200927734375,0.12213740458015267,-1.4045801526717556,-0.06870229007633588
-0.33679962158203125,0.5748046875,0.7741900634765625,0.1450381679389313,-1.1374045801526718,0.015267175572519083
0.298179931640625,0.7963439941406251,1.0340496826171877,0.5343511450381679,-0.47328244274809156,0.21374045801526717
0.7370672607421875,0.7176077270507812,0.9867480468750001,0.13740458015267176,0.0916030534351145,0.4580152671755725
1.3555810546875,0.681383056640625,0.9346563720703126,0.030534351145038167,0.6793893129770993,0.41221374045801523
1.5480807495117188,0.3496728515625,0.8792715454101563,0.183206106870229,1.4045801526717556,0.3053435114503817
1.5091616821289062,0.09131011962890626,0.7167095947265625,0.1984732824427481,1.9312977099236641,0.1450381679389313
1.4004876708984375,0.2951861572265625,1.2672647094726563,-0.3893129770992366,1.450381679389313,-0.030534351145038167
0.6616241455078126,0.07544311523437501,1.8049465942382814,-0.26717557251908397,0.8625954198473282,-0.0916030534351145
0.7466473388671876,0.37392242431640627,0.9565109252929688,0.35877862595419846,0.5343511450381679,0.15267175572519084
0.726888427734375,0.20746856689453125,-0.8379574584960938,1.5954198473282442,0.5572519083969465,0.11450381679389313
1.0313552856445314,0.408350830078125,0.15687377929687502,0.3969465648854962,-0.11450381679389313,-0.015267175572519083
1.310973815917969,-0.810714111328125,-0.42391845703125003,1.16793893129771,0.0,-0.03816793893129771
1.3271401977539063,-0.9774673461914063,-0.48559020996093755,0.9389312977099237,0.07633587786259542,-0.16030534351145037
1.5091616821289062,-1.4849121093750002,-0.26315277099609374,1.5954198473282442,0.10687022900763359,-0.2748091603053435
1.5091616821289062,-1.4849121093750002,-0.26315277099609374,1.5954198473282442,0.10687022900763359,-0.2748091603053435
1.2939093017578125,-1.0684780883789062,0.9915380859375,1.5572519083969465,0.022900763358778626,-0.183206106870229
0.37212615966796875,0.10807525634765626,2.0899539184570313,-0.4198473282442748,-1.1603053435114503,0.0
0.0143701171875,-0.39398071289062503,1.427431640625,-0.022900763358778626,-1.7022900763358777,-0.15267175572519084
0.6547384643554688,-0.01945953369140625,-0.4314028930664063,0.19083969465648853,-1.4961832061068703,-0.1450381679389313
0.6547384643554688,-0.01945953369140625,-0.4314028930664063,0.19083969465648853,-1.4961832061068703,-0.1450381679389313
1.3301339721679688,-0.1676513671875,0.06795867919921875,0.23664122137404578,-0.648854961832061,0.10687022900763359
1.3301339721679688,-0.1676513671875,0.06795867919921875,0.23664122137404578,-0.648854961832061,0.10687022900763359
1.469344482421875,-0.38290374755859374,0.37631744384765625,0.0,0.3129770992366412,0.32061068702290074
1.6121475219726564,-0.5427713012695313,0.6173162841796875,0.282442748091603,1.083969465648855,0.4427480916030534
1.4337185668945314,-0.4272116088867188,0.13412109375,-0.10687022900763359,1.648854961832061,0.5267175572519084
0.6685098266601562,-0.4194277954101563,0.9861492919921876,-0.732824427480916,1.1374045801526718,0.45038167938931295
1.311273193359375,0.3445834350585938,1.4196478271484376,-0.6641221374045801,0.4351145038167939,0.37404580152671757
1.311273193359375,0.3445834350585938,1.4196478271484376,-0.6641221374045801,0.4351145038167939,0.37404580152671757
1.6094531250000002,0.6421646118164063,-0.11286529541015626,-0.8396946564885496,-0.04580152671755725,0.0916030534351145
1.2121792602539063,0.6083349609375001,0.10328521728515626,0.12213740458015267,0.03816793893129771,-0.030534351145038167
1.3034893798828127,0.8238867187500001,-0.1838177490234375,0.061068702290076333,-0.05343511450381679,-0.022900763358778626
1.3654605102539064,0.7741900634765625,-0.22094055175781252,-0.022900763358778626,0.0,-0.04580152671755725
1.3654605102539064,0.7741900634765625,-0.22094055175781252,-0.022900763358778626,0.0,-0.04580152671755725
1.1876303100585939,0.6613247680664063,-0.3909869384765625,0.0,-0.015267175572519083,-0.007633587786259542
1.0852432250976562,0.6550378417968751,-0.47331573486328127,-0.007633587786259542,-0.022900763358778626,-0.015267175572519083
1.0852432250976562,0.6550378417968751,-0.47331573486328127,-0.007633587786259542,-0.022900763358778626,-0.015267175572519083
0.8637039184570313,1.1169772338867188,-0.48618896484375,-0.48854961832061067,-0.282442748091603,0.06870229007633588
0.8637039184570313,1.1169772338867188,-0.48618896484375,-0.48854961832061067,-0.282442748091603,0.06870229007633588
-0.314945068359375,0.18082397460937502,0.4876858520507813,0.022900763358778626,-0.9923664122137404,-0.0916030534351145
-0.6987469482421875,0.7526348876953125,0.29189300537109375,0.09923664122137404,-1.549618320610687,-0.282442748091603
0.21764739990234377,0.5484594726562501,0.9613009643554687,0.022900763358778626,-0.9694656488549618,0.19083969465648853
0.8403524780273438,0.4517605590820313,0.8316705322265625,-0.11450381679389313,-0.47328244274809156,0.29770992366412213
0.9942324829101563,1.3367202758789063,0.8678952026367188,0.007633587786259542,0.04580152671755725,0.061068702290076333
1.0783575439453126,0.7933502197265625,1.0106982421875002,0.0,0.7022900763358778,0.3969465648854962
1.1765533447265626,0.5661227416992187,0.5972579956054688,0.0,1.7022900763358777,0.5725190839694656
1.2079879760742187,0.449066162109375,0.5993536376953126,0.015267175572519083,2.2061068702290076,0.5877862595419847
1.02267333984375,-0.1874102783203125,2.0675006103515625,-0.183206106870229,1.4809160305343512,0.16793893129770993
0.6149212646484375,0.5119354248046876,-0.9981243896484375,1.2290076335877862,0.6412213740458015,0.05343511450381679
1.0738668823242188,-0.4685256958007813,-0.056582336425781254,0.8931297709923663,0.0,-0.015267175572519083
1.205892333984375,-0.8131091308593751,-0.9217831420898438,1.297709923664122,0.03816793893129771,0.007633587786259542
1.6001724243164064,-1.5064672851562502,-0.44038421630859376,1.0534351145038168,0.06870229007633588,-0.22900763358778625
1.3421090698242188,-0.8319699096679688,0.0101788330078125,1.213740458015267,0.19083969465648853,-0.3511450381679389
1.24780517578125,0.04071533203125,0.613125,0.6717557251908397,-0.03816793893129771,0.12213740458015267
1.4651531982421875,-0.499361572265625,1.8462606811523439,-0.1297709923664122,-0.7022900763358778,-0.1984732824427481
0.024548950195312502,-1.3142669677734375,1.7402810668945314,0.12213740458015267,-1.2061068702290076,-0.7251908396946565
0.183218994140625,-0.3092568969726563,0.56282958984375,0.2595419847328244,-1.5114503816793892,-0.6183206106870229
0.626297607421875,0.37931121826171876,-0.5742059326171876,0.2595419847328244,-1.3587786259541985,-0.4351145038167939
1.1199710083007812,0.08652008056640625,-0.5143304443359376,0.41221374045801523,-1.0305343511450382,-0.20610687022900762
1.4582675170898438,-0.140108642578125,-0.34787658691406254,0.3129770992366412,-0.7022900763358778,-0.015267175572519083
1.5364050292968752,-0.13980926513671876,-0.14100677490234376,-0.25190839694656486,-0.2748091603053435,0.22900763358778625
1.4127621459960937,-0.55564453125,0.2832110595703125,0.3053435114503817,0.549618320610687,0.22900763358778625
1.730401611328125,-0.7451504516601563,0.1676513671875,-0.11450381679389313,1.3969465648854962,0.2595419847328244
1.4034814453125,-0.37212615966796875,0.4915777587890625,-0.4961832061068702,1.4961832061068703,0.564885496183206
0.7283853149414062,-0.5370831298828125,1.3858181762695314,-0.9465648854961831,0.8015267175572519,0.6412213740458015
1.093027038574219,0.1742376708984375,1.1295510864257814,-0.7251908396946565,0.34351145038167935,0.6564885496183206
1.572330322265625,0.03323089599609375,0.02065704345703125,0.19083969465648853,0.2900763358778626,0.6335877862595419
1.1570938110351563,0.8080197143554688,-0.5457650756835938,-0.8396946564885496,-0.022900763358778626,0.183206106870229
1.6184344482421875,0.47301635742187503,-0.013471984863281251,-0.3053435114503817,0.06870229007633588,0.030534351145038167
1.2867242431640626,1.1582913208007812,0.5307962036132813,-0.3053435114503817,-0.07633587786259542,0.05343511450381679
1.2978012084960937,0.6577322387695312,0.00239501953125,0.11450381679389313,-0.03816793893129771,0.015267175572519083
1.3690530395507814,0.9657916259765625,-0.16136444091796875,-0.04580152671755725,0.007633587786259542,-0.061068702290076333
1.264270935058594,0.9936337280273438,-0.19848724365234377,0.09923664122137404,0.007633587786259542,-0.015267175572519083
1.2522958374023438,0.9113049316406251,-0.44188110351562504,-0.015267175572519083,0.0,-0.022900763358778626
1.2241543579101564,0.7050338745117188,-0.4589456176757813,-0.007633587786259542,-0.007633587786259542,-0.015267175572519083
1.2205618286132813,0.7047344970703125,-0.49906219482421876,-0.061068702290076333,-0.007633587786259542,-0.030534351145038167
1.2481045532226562,0.7810757446289063,-0.5655239868164063,-0.05343511450381679,0.0,0.0
1.1750564575195312,0.7301815795898438,-0.5346881103515625,-0.10687022900763359,-0.007633587786259542,-0.022900763358778626
0.6894662475585938,0.9627978515625001,-0.09580078125000001,-0.4961832061068702,-0.45038167938931295,0.061068702290076333
-0.16016693115234376,0.7059320068359375,0.6523434448242188,-0.183206106870229,-0.9465648854961831,0.08396946564885496
-0.996328125,0.7176077270507812,0.65863037109375,-0.282442748091603,-1.3969465648854962,0.1297709923664122
-1.1771520996093752,0.789158935546875,-0.19369720458984377,0.015267175572519083,-1.3969465648854962,0.08396946564885496
-0.36134857177734375,0.5454656982421875,0.30716125488281254,-0.061068702290076333,-1.0763358778625953,0.03816793893129771
0.5682183837890625,0.8592132568359375,0.8032296752929687,0.08396946564885496,-0.7022900763358778,0.04580152671755725
1.0050100708007812,0.7203021240234375,1.2103829956054688,-0.007633587786259542,-0.2748091603053435,0.2213740458015267
0.9430389404296875,0.95561279296875,1.0684780883789062,-0.007633587786259542,-0.09923664122137404,0.12213740458015267
1.1190728759765625,0.8723858642578125,1.3352233886718752,0.015267175572519083,0.1297709923664122,0.11450381679389313
1.3157638549804689,0.590372314453125,1.2005035400390625,0.1297709923664122,0.5572519083969465,0.09923664122137404
1.4444961547851562,0.28231292724609375,0.613125,-0.0916030534351145,1.1221374045801527,0.2213740458015267
1.3510903930664062,0.38619689941406254,0.4017645263671875,-0.282442748091603,1.4351145038167938,0.16030534351145037
0.9762698364257812,0.07214996337890625,0.963995361328125,-0.35877862595419846,1.5114503816793892,0.21374045801526717
0.8265811157226562,0.09580078125000001,1.6067587280273439,-0.061068702290076333,1.0916030534351144,0.19083969465648853
1.0424322509765624,-0.058977355957031255,1.1214678955078126,0.3969465648854962,0.6793893129770993,0.13740458015267176
0.8867559814453125,-0.5047503662109375,-0.324525146484375,1.2671755725190839,0.5038167938931297,0.030534351145038167
1.1463162231445314,-0.288599853515625,-0.724493408203125,1.2748091603053435,0.2900763358778626,-0.16793893129770993
1.5567626953125,-0.8050259399414063,-0.25117767333984375,0.3893129770992366,0.030534351145038167,-0.08396946564885496
1.478924560546875,-1.1454180908203127,-0.4293072509765625,0.48854961832061067,0.09923664122137404,-0.0916030534351145
1.2636721801757813,-0.6388714599609375,-0.05358856201171875,0.1450381679389313,0.1450381679389313,-0.06870229007633588
1.0870394897460938,-1.0289602661132813,0.7897576904296876,1.045801526717557,0.030534351145038167,0.015267175572519083
1.3172607421875,-1.232237548828125,0.7918533325195313,0.33587786259541985,-0.1450381679389313,-0.11450381679389313
1.0412347412109375,-1.936373291015625,1.2666659545898438,0.33587786259541985,-0.4961832061068702,-0.648854961832061
-0.17932708740234377,-1.6627423095703127,0.7310797119140625,1.3053435114503815,-1.0534351145038168,-0.9770992366412213
0.29608428955078125,0.4900808715820313,0.08801696777343751,0.05343511450381679,-1.5877862595419847,-0.6641221374045801
0.8616082763671875,-0.144898681640625,-0.1011895751953125,1.045801526717557,-1.1450381679389312,-0.32061068702290074
1.2391232299804689,0.1682501220703125,0.15837066650390627,0.5190839694656488,-0.9389312977099237,0.25190839694656486
1.2289443969726563,-0.5921685791015625,0.0592767333984375,0.15267175572519084,-0.7022900763358778,0.22900763358778625
1.3217514038085938,-0.6703060913085938,0.067060546875,-0.015267175572519083,-0.2748091603053435,0.3893129770992366
1.1331436157226562,-0.1538800048828125,0.3062631225585938,0.05343511450381679,0.29770992366412213,0.34351145038167935
1.1588900756835938,-0.6433621215820313,0.6146218872070313,0.22900763358778625,0.9770992366412213,0.6259541984732824
1.4435980224609375,-0.8592132568359375,0.4448748779296875,0.05343511450381679,1.8244274809160304,0.6870229007633587
1.22625,-0.5011578369140626,0.48529083251953126,-0.4198473282442748,1.4809160305343512,0.42748091603053434
0.8196954345703126,-0.6700067138671876,1.1475137329101563,-0.6183206106870229,0.9923664122137404,0.366412213740458
0.9595046997070313,0.16256195068359375,1.0990145874023438,-0.9083969465648855,0.5038167938931297,0.2595419847328244
0.8376580810546875,1.7426760864257813,-0.33679962158203125,-1.0381679389312977,0.183206106870229,0.4198473282442748
1.0837463378906251,0.3502716064453125,-0.28770172119140625,0.022900763358778626,0.0916030534351145,0.20610687022900762
1.6450790405273439,0.21764739990234377,0.09550140380859376,-0.47328244274809156,-0.07633587786259542,0.015267175572519083
1.310973815917969,0.7337741088867188,0.20627105712890625,-0.4809160305343511,0.030534351145038167,-0.11450381679389313
1.5669415283203125,1.0828482055664064,0.22543121337890626,0.41221374045801523,0.03816793893129771,-0.015267175572519083
1.4729370117187501,0.7238946533203126,-0.41194335937500004,0.1297709923664122,-0.03816793893129771,-0.022900763358778626
1.2834310913085938,0.6236032104492187,-0.33799713134765624,0.15267175572519084,0.04580152671755725,-0.03816793893129771
1.2960049438476564,0.8158035278320312,-0.26764343261718754,0.12213740458015267,0.007633587786259542,-0.022900763358778626
1.2846286010742187,0.7595205688476563,-0.4709207153320313,-0.007633587786259542,-0.04580152671755725,0.0
1.2983999633789063,0.496966552734375,-0.536484375,0.1297709923664122,0.030534351145038167,0.0
1.2472064208984375,0.43499542236328126,-0.4999603271484375,0.05343511450381679,0.0,-0.007633587786259542
1.1630813598632812,0.3418890380859375,-0.59156982421875,0.007633587786259542,-0.015267175572519083,-0.015267175572519083
1.0241702270507813,0.3826043701171875,-0.5987548828125,0.0,-0.07633587786259542,-0.015267175572519083
1.1451187133789062,0.6828799438476563,-0.6876699829101562,-0.282442748091603,-0.21374045801526717,-0.015267175572519083
1.0600955200195312,0.6376739501953125,-0.640667724609375,-0.40458015267175573,-0.3053435114503817,-0.04580152671755725
0.5481600952148438,0.3242257690429688,0.18890716552734377,-0.3053435114503817,-0.5038167938931297,-0.007633587786259542
-0.6688092041015625,0.4912783813476563,0.17693206787109375,-0.41221374045801523,-0.9847328244274809,-0.061068702290076333
-1.2277468872070314,0.4454736328125,0.2900967407226563,0.15267175572519084,-1.4427480916030533,-0.20610687022900762
-1.212778015136719,0.5206173706054688,-0.032332763671875,-0.022900763358778626,-1.4122137404580153,-0.15267175572519084
-0.2520758056640625,0.5846841430664063,0.65384033203125,0.05343511450381679,-1.2061068702290076,-0.015267175572519083
0.4712200927734375,0.33440460205078126,1.3013937377929687,0.15267175572519084,-0.3053435114503817,0.15267175572519084
0.44726989746093754,0.5394781494140626,1.2612771606445312,0.0,-0.030534351145038167,0.3969465648854962
1.1786489868164063,-0.19579284667968752,0.7562274169921875,0.1450381679389313,0.9541984732824427,0.48854961832061067
1.2822335815429688,0.2436932373046875,0.4481680297851563,-0.5114503816793893,1.66412213740458,0.732824427480916
1.3618679809570313,0.5900729370117188,1.8857785034179688,-0.83206106870229,1.4427480916030533,0.8396946564885496
0.718505859375,0.11017089843750001,0.20327728271484377,0.9923664122137404,0.8549618320610687,0.4198473282442748
0.8858578491210938,0.0796343994140625,-0.38050872802734376,1.0305343511450382,0.549618320610687,0.17557251908396945
1.1669732666015626,-0.11286529541015626,-0.4939727783203125,0.8167938931297709,0.061068702290076333,-0.015267175572519083
1.4376104736328126,-0.5981561279296875,-1.2310400390625,0.3511450381679389,0.007633587786259542,0.022900763358778626
1.2723541259765625,-0.45804748535156253,-0.5721102905273437,0.11450381679389313,0.04580152671755725,-0.17557251908396945
1.0663824462890625,-0.398770751953125,0.4221221923828125,0.1450381679389313,0.04580152671755725,-0.12213740458015267
1.0029144287109375,-2.14354248046875,0.4412823486328125,0.9923664122137404,0.0,-0.07633587786259542
1.0256671142578127,-2.1339624023437502,0.4343966674804688,1.5267175572519083,-0.3129770992366412,-0.5725190839694656
0.130528564453125,-0.42691223144531254,1.0077044677734375,0.6870229007633587,-1.5877862595419847,-0.7022900763358778
0.5858816528320313,-0.3894900512695313,0.6849755859375001,-0.5954198473282443,-1.7251908396946565,-0.9465648854961831
0.9876461791992188,-0.5445675659179687,0.16675323486328125,0.4961832061068702,-1.2595419847328244,-0.9083969465648855
0.9861492919921876,0.39398071289062503,-0.30296997070312504,-0.030534351145038167,-1.129770992366412,-0.5877862595419847
1.2022998046875,0.10597961425781251,-0.22064117431640626,0.4198473282442748,-0.7557251908396946,-0.23664122137404578
1.725312194824219,0.2664459228515625,-0.28650421142578125,0.17557251908396945,0.2595419847328244,0.3282442748091603
1.84177001953125,-0.3814068603515625,-0.046403503417968756,0.17557251908396945,0.8549618320610687,0.6717557251908397
1.8345849609375,-0.6900650024414063,0.2293231201171875,0.23664122137404578,1.4427480916030533,0.8244274809160305
1.7702188110351564,-0.8343649291992188,0.25896148681640624,-0.16030534351145037,1.83206106870229,0.9312977099236641
1.477427673339844,-0.9633966064453126,1.1181747436523437,-0.5877862595419847,1.3129770992366412,0.6183206106870229
0.9307644653320313,-0.15567626953125,1.0457254028320313,-0.7862595419847328,0.6946564885496183,0.45038167938931295
1.0445278930664064,0.067060546875,1.17595458984375,-0.40458015267175573,0.37404580152671757,0.5038167938931297
1.2612771606445312,0.8840615844726563,-0.38470001220703126,-0.6793893129770993,0.0916030534351145,0.41221374045801523
1.3786331176757813,-0.142503662109375,-0.05059478759765625,-0.2900763358778626,0.0916030534351145,0.13740458015267176
1.6732205200195314,0.47900390625,-0.00029937744140625,-0.6183206106870229,0.007633587786259542,-0.0916030534351145
1.3651611328125002,1.0571017456054688,0.6062393188476562,-0.16030534351145037,-0.05343511450381679,0.061068702290076333
1.3247451782226562,0.568817138671875,-0.27153533935546875,0.2213740458015267,-0.061068702290076333,0.05343511450381679
1.2493020629882814,0.5185217285156251,-0.298179931640625,0.35877862595419846,-0.015267175572519083,-0.04580152671755725
1.3154644775390625,0.30446685791015626,-0.45834686279296877,-0.022900763358778626,-0.022900763358778626,-0.015267175572519083
1.2570858764648438,0.34218841552734375,-0.3673361206054688,0.015267175572519083,0.007633587786259542,-0.03816793893129771
1.2166699218750001,0.27063720703125,-0.532891845703125,0.030534351145038167,0.0,-0.022900763358778626
1.2064910888671876,0.27872039794921877,-0.5619314575195313,-0.030534351145038167,0.015267175572519083,0.0
1.1648776245117187,0.17603393554687502,-0.5008584594726563,-0.12213740458015267,-0.015267175572519083,-0.015267175572519083
1.1475137329101563,0.2029779052734375,-0.5298980712890625,-0.007633587786259542,-0.007633587786259542,-0.015267175572519083
1.1073971557617188,0.1586700439453125,-0.6002517700195312,-0.06870229007633588,-0.007633587786259542,-0.007633587786259542
0.8690927124023438,0.2900967407226563,-0.7071295166015625,-0.1984732824427481,-0.030534351145038167,0.022900763358778626
0.6245013427734375,0.803529052734375,-0.5798941040039063,-0.7099236641221374,-0.564885496183206,0.09923664122137404
-1.2208612060546875,0.8496331787109376,0.39966888427734376,-0.34351145038167935,-1.3893129770992365,-0.007633587786259542
-1.1909234619140625,1.1175759887695313,-0.09131011962890626,-0.007633587786259542,-1.4961832061068703,-0.022900763358778626
-0.6331832885742188,0.641865234375,0.2903961181640625,0.3053435114503817,-1.213740458015267,-0.015267175572519083
0.076640625,0.6077362060546875,0.999920654296875,0.07633587786259542,-0.9236641221374046,0.10687022900763359
0.9810598754882813,0.7173083496093751,1.32444580078125,0.2595419847328244,-0.08396946564885496,0.35877862595419846
1.4364129638671876,0.846639404296875,0.602347412109375,0.2900763358778626,0.9770992366412213,0.34351145038167935
1.3076806640625,0.4547543334960938,0.43080413818359375,-0.030534351145038167,1.66412213740458,0.25190839694656486
1.174457702636719,0.18561401367187502,1.610351257324219,-0.1984732824427481,1.4961832061068703,0.11450381679389313
0.6652166748046875,0.28800109863281254,1.6253201293945314,0.23664122137404578,0.732824427480916,-0.030534351145038167
0.846639404296875,0.0987945556640625,0.6520440673828125,0.8702290076335878,0.4580152671755725,0.030534351145038167
0.5553451538085937,0.678988037109375,-1.2750485229492188,0.564885496183206,0.5038167938931297,0.1297709923664122
0.6933581542968751,1.0316546630859376,0.0,0.13740458015267176,0.06870229007633588,-0.04580152671755725
1.2163705444335937,-0.7247927856445313,-0.4505630493164063,1.3358778625954197,-0.007633587786259542,0.015267175572519083
1.2789404296875,-0.6143225097656251,-0.6328839111328125,0.9694656488549618,0.0916030534351145,0.022900763358778626
1.1909234619140625,-1.2891192626953125,-0.7957452392578125,0.6106870229007634,-0.0916030534351145,0.061068702290076333
0.8508306884765625,-0.8699908447265625,-0.21644989013671875,0.17557251908396945,0.061068702290076333,-0.3053435114503817
1.3780343627929688,-1.3229489135742187,0.27303222656250004,1.4732824427480915,0.1450381679389313,-0.2213740458015267
0.8361611938476563,-1.0627899169921875,0.9340576171875,1.2366412213740459,-0.07633587786259542,-0.183206106870229
0.5568420410156251,-1.5831079101562502,1.85614013671875,0.6412213740458015,-1.0305343511450382,-0.549618320610687
-0.6002517700195312,-0.6640191650390626,0.7732919311523437,0.38167938931297707,-1.7099236641221374,-0.8549618320610687
0.350870361328125,0.1538800048828125,-0.058677978515625,-0.16793893129770993,-1.6793893129770991,-0.8091603053435115
0.904119873046875,-0.20178039550781252,-0.41763153076171877,1.1755725190839694,-1.2290076335877862,-0.3511450381679389
1.550775146484375,-0.5643264770507813,-0.35057098388671876,-0.061068702290076333,-0.7022900763358778,-0.0916030534351145
1.4163546752929688,0.16435821533203127,-0.02784210205078125,0.061068702290076333,-0.061068702290076333,0.25190839694656486
1.5402969360351564,-0.3769161987304688,0.40954833984375,0.41221374045801523,0.4427480916030534,0.35877862595419846
1.8606307983398438,-0.8771759033203126,0.5888754272460938,0.4427480916030534,1.1374045801526718,0.5190839694656488
1.6672329711914062,-1.1517050170898437,0.30326934814453127,0.42748091603053434,1.6259541984732824,0.29770992366412213
1.1490106201171875,-0.9547146606445313,0.48379394531250003,-0.3511450381679389,1.66412213740458,0.10687022900763359
0.5260061645507813,-0.6451583862304687,0.7481442260742188,-1.129770992366412,1.2442748091603053,0.25190839694656486
0.7071295166015625,-0.07933502197265625,0.9654922485351562,-1.3206106870229006,0.7480916030534351,0.33587786259541985
1.1702664184570313,0.2149530029296875,1.427431640625,-0.8015267175572519,0.26717557251908397,0.48854961832061067
1.37713623046875,0.6445596313476563,-0.5278024291992188,-0.732824427480916,0.022900763358778626,0.282442748091603
1.4166540527343752,0.6083349609375001,0.13112731933593752,-0.2748091603053435,0.04580152671755725,-0.0916030534351145
1.47533203125,0.6691085815429688,0.16615447998046876,0.1297709923664122,0.022900763358778626,-0.17557251908396945
1.1520043945312501,1.6498690795898439,0.023351440429687502,-0.1450381679389313,-0.1450381679389313,-0.061068702290076333
1.428629150390625,0.48409332275390626,-0.28291168212890627,0.37404580152671757,-0.09923664122137404,0.04580152671755725
1.3034893798828127,0.7526348876953125,-0.43768981933593754,0.061068702290076333,-0.08396946564885496,-0.061068702290076333
1.312470703125,0.5658233642578125,-0.43379791259765627,0.06870229007633588,-0.022900763358778626,-0.08396946564885496
1.2699591064453126,0.53408935546875,-0.43379791259765627,0.19083969465648853,0.030534351145038167,-0.09923664122137404
1.155596923828125,0.6068380737304688,-0.38859191894531253,0.16030534351145037,0.030534351145038167,-0.03816793893129771
1.1597882080078126,0.6559359741210938,-0.48648834228515625,-0.030534351145038167,-0.015267175572519083,0.015267175572519083
1.2017010498046876,0.30386810302734374,-0.5331912231445313,0.04580152671755725,0.0,0.05343511450381679
1.19990478515625,0.41733215332031254,-0.6230044555664063,-0.061068702290076333,0.015267175572519083,0.007633587786259542
1.2002041625976563,0.5298980712890625,-0.5625302124023438,0.11450381679389313,0.04580152671755725,-0.022900763358778626
0.9433383178710938,0.6996450805664063,-0.5622308349609375,-0.5419847328244275,-0.05343511450381679,0.022900763358778626
0.9044192504882813,0.3062631225585938,0.08053253173828126,-0.7633587786259541,-0.46564885496183206,0.0916030534351145
-1.0666818237304687,0.74964111328125,0.43739044189453125,-0.12213740458015267,-1.1603053435114503,0.061068702290076333
-1.033450927734375,0.4056564331054688,-0.28111541748046875,-0.26717557251908397,-1.7099236641221374,-0.25190839694656486
0.09849517822265626,0.8032296752929687,0.8672964477539062,-0.12213740458015267,-0.9694656488549618,0.06870229007633588
0.4355941772460938,0.6062393188476562,1.2507989501953125,0.06870229007633588,-0.10687022900763359,0.2900763358778626
0.6999444580078126,0.4496649169921875,0.8128097534179688,0.3282442748091603,1.0381679389312977,0.5343511450381679
0.8409512329101563,0.07604187011718751,0.3607498168945313,0.0916030534351145,2.1374045801526718,0.6870229007633587
1.1133847045898437,-0.1754351806640625,2.2977218627929688,-0.3969465648854962,1.2290076335877862,0.11450381679389313
0.35206787109375004,-0.4763095092773438,0.5969586181640625,1.2519083969465647,0.6183206106870229,0.06870229007633588
0.9059161376953125,0.523311767578125,-0.7158114624023438,0.3511450381679389,0.25190839694656486,0.1984732824427481
1.330433349609375,-0.30835876464843753,0.040415954589843754,0.6717557251908397,0.08396946564885496,0.061068702290076333
1.4235397338867188,-0.8759783935546875,-0.37392242431640627,1.5877862595419847,0.08396946564885496,0.015267175572519083
1.136436767578125,-1.0669812011718751,-0.14340179443359377,1.0534351145038168,0.06870229007633588,-0.08396946564885496
1.2690609741210939,-1.591490478515625,-0.00239501953125,0.9236641221374046,-0.022900763358778626,-0.1984732824427481
1.2660671997070314,-1.30528564453125,0.3799099731445313,0.8473282442748091,-0.06870229007633588,-0.2900763358778626
0.9810598754882813,-1.1864328002929687,1.1867321777343751,1.2748091603053435,-0.183206106870229,-0.32061068702290074
0.2341131591796875,-0.5161267089843751,2.2309606933593753,0.12213740458015267,-1.4961832061068703,-0.07633587786259542
-0.28889923095703124,-0.26494903564453126,0.7807763671875,-0.09923664122137404,-1.9618320610687021,-0.10687022900763359
0.41852966308593753,-0.37661682128906254,-0.12903167724609377,0.015267175572519083,-1.6946564885496183,-0.09923664122137404
0.8529263305664063,-0.18531463623046876,-0.4454736328125,0.3969465648854962,-1.2442748091603053,0.282442748091603
0.9385482788085938,-0.44876678466796877,-0.5652246093750001,0.24427480916030533,-0.8625954198473282,0.29770992366412213
0.9445358276367188,-0.40505767822265626,-0.4571493530273438,0.10687022900763359,-0.46564885496183206,0.4580152671755725
0.7658074951171875,-0.36973114013671876,0.0484991455078125,0.061068702290076333,0.23664122137404578,0.40458015267175573
1.447789306640625,-0.9921368408203125,0.499361572265625,0.16793893129770993,1.16793893129771,0.8473282442748091
1.0807525634765625,-0.9412426757812501,0.73527099609375,-0.34351145038167935,1.618320610687023,0.549618320610687
0.669407958984375,-0.5544470214843751,1.5855029296875,-0.6335877862595419,1.0229007633587786,0.42748091603053434
1.0268646240234376,0.47690826416015625,0.9738748168945313,-0.4809160305343511,0.648854961832061,0.37404580152671757
1.1972103881835938,-0.07095245361328126,-0.12124786376953126,-0.17557251908396945,0.10687022900763359,0.17557251908396945
1.5965798950195313,0.4550537109375,-0.09490264892578125,-0.47328244274809156,-0.03816793893129771,-0.022900763358778626
1.327738952636719,0.7430548095703126,-0.1287322998046875,0.23664122137404578,0.030534351145038167,0.015267175572519083
1.3585748291015625,0.5960604858398438,-0.29368927001953127,-0.03816793893129771,-0.04580152671755725,-0.015267175572519083
1.2235556030273438,0.5301974487304688,-0.5272036743164062,0.15267175572519084,-0.05343511450381679,-0.015267175572519083
1.122964782714844,0.7155120849609375,-0.7167095947265625,-0.17557251908396945,-0.1297709923664122,0.022900763358778626
1.0529104614257814,0.5951623535156251,-0.7373666381835938,-0.11450381679389313,-0.20610687022900762,0.022900763358778626
0.9828561401367188,0.8214916992187501,-0.4532574462890625,-0.3893129770992366,-0.29770992366412213,0.030534351145038167
0.43619293212890625,0.8702902221679688,0.7059320068359375,-0.6641221374045801,-0.7099236641221374,0.09923664122137404
-0.6245013427734375,1.2073892211914063,0.7523355102539063,-0.6183206106870229,-1.3435114503816794,0.022900763358778626
-1.0202783203125,0.8146060180664063,0.40356079101562503,0.015267175572519083,-1.580152671755725,-0.16030534351145037
-0.7936495971679688,0.5837860107421875,-0.00239501953125,0.16793893129770993,-1.4274809160305344,-0.16030534351145037
-0.6601272583007813,0.5439688110351563,0.536484375,-0.030534351145038167,-1.1450381679389312,-0.11450381679389313
0.4355941772460938,0.5583389282226563,0.7948471069335938,-0.06870229007633588,-0.9236641221374046,0.007633587786259542
0.5849835205078125,0.444276123046875,0.9265731811523438,-0.03816793893129771,-0.5267175572519084,0.20610687022900762
0.39847137451171877,0.5667214965820313,1.0879376220703125,-0.2748091603053435,0.06870229007633588,0.2900763358778626
0.5322930908203125,0.21165985107421875,0.4439767456054688,0.11450381679389313,1.7404580152671756,0.48854961832061067
0.6520440673828125,0.12064910888671876,1.081351318359375,-0.5114503816793893,2.183206106870229,1.0534351145038168
0.95561279296875,-0.1191522216796875,2.897674255371094,-0.366412213740458,1.2748091603053435,0.7404580152671756
0.7966433715820312,-0.6547384643554688,-0.30835876464843753,1.9770992366412212,0.7022900763358778,0.366412213740458
0.9553134155273438,1.5450869750976564,-0.6996450805664063,0.09923664122137404,0.183206106870229,0.16030534351145037
1.389111328125,-0.4888833618164063,-0.0556842041015625,0.9236641221374046,0.10687022900763359,0.022900763358778626
0.7768844604492188,-0.3113525390625,-0.536484375,1.1450381679389312,-0.022900763358778626,0.04580152671755725
1.4088702392578125,-0.5682183837890625,-0.6541397094726563,0.6335877862595419,-0.10687022900763359,-0.015267175572519083
1.1648776245117187,-1.0756631469726563,-0.4876858520507813,0.4580152671755725,-0.04580152671755725,0.007633587786259542
1.2966036987304688,-1.3765374755859376,-0.36553985595703126,0.8167938931297709,0.05343511450381679,-0.04580152671755725
1.3190570068359375,-1.0319540405273437,-0.01916015625,0.32061068702290074,-0.022900763358778626,-0.15267175572519084
1.084644470214844,-1.0804531860351563,0.42002655029296876,0.9847328244274809,-0.007633587786259542,-0.12213740458015267
1.1154803466796877,-1.1804452514648438,0.8643026733398438,0.6641221374045801,-0.19083969465648853,-0.1297709923664122
1.204395446777344,-1.4714401245117188,1.0672805786132813,1.3893129770992365,-0.26717557251908397,-0.34351145038167935
0.22183868408203125,0.055085449218750006,1.5852035522460939,0.2213740458015267,-1.2671755725190839,-0.24427480916030533
-0.07574249267578126,0.21315673828125,1.0735675048828126,-0.2748091603053435,-1.9236641221374045,-0.32061068702290074
0.23710693359375,-0.7146139526367188,0.209564208984375,0.26717557251908397,-1.6946564885496183,0.007633587786259542
0.6421646118164063,-0.5116360473632813,-0.34787658691406254,0.34351145038167935,-1.2290076335877862,0.2595419847328244
0.8256829833984375,-0.7702981567382813,-0.5191204833984375,0.4351145038167939,-0.7938931297709924,0.3282442748091603
1.2112811279296876,-0.7125183105468751,-0.10627899169921876,0.08396946564885496,0.2748091603053435,0.32061068702290074
1.9687060546875002,-1.0651849365234376,0.4317022705078125,-0.030534351145038167,1.8396946564885495,-0.022900763358778626
0.8538244628906251,-0.3703298950195313,0.884959716796875,-0.46564885496183206,1.2671755725190839,-0.16030534351145037
0.719703369140625,-0.5595364379882812,1.1717633056640626,-0.2213740458015267,0.9236641221374046,0.12213740458015267
0.97477294921875,-0.1574725341796875,0.6292913818359376,0.11450381679389313,0.4961832061068702,0.1984732824427481
1.1211685180664064,0.17483642578125,-0.26764343261718754,0.10687022900763359,0.17557251908396945,0.23664122137404578
1.4651531982421875,-0.243094482421875,-0.26375152587890627,-0.3129770992366412,-0.0916030534351145,-0.007633587786259542
1.4133609008789063,-0.239501953125,-0.20357666015625,-0.34351145038167935,-0.12213740458015267,0.03816793893129771
1.2124786376953125,-0.33829650878906253,-0.05837860107421875,-0.17557251908396945,-0.15267175572519084,0.07633587786259542
1.3660592651367187,0.1850152587890625,-0.10597961425781251,-0.38167938931297707,-0.09923664122137404,-0.015267175572519083
1.2361294555664064,0.108973388671875,-0.23201751708984375,-0.1984732824427481,-0.030534351145038167,0.03816793893129771
1.1193722534179689,0.22183868408203125,-0.3203338623046875,0.08396946564885496,-0.04580152671755725,-0.022900763358778626
1.1588900756835938,0.3400927734375,-0.40206390380859375,-0.11450381679389313,-0.022900763358778626,-0.015267175572519083
1.0244696044921875,0.2951861572265625,-0.43739044189453125,0.08396946564885496,0.015267175572519083,0.0
0.9729766845703125,0.3607498168945313,-0.5442681884765626,-0.08396946564885496,-0.007633587786259542,0.030534351145038167
0.9642947387695313,0.25626708984375,-0.46912445068359376,0.0,-0.022900763358778626,0.007633587786259542
0.9346563720703126,0.32751892089843754,-0.564027099609375,0.015267175572519083,0.0,0.030534351145038167
0.9352551269531251,0.17932708740234377,-0.5475613403320313,0.030534351145038167,-0.007633587786259542,0.015267175572519083
0.93645263671875,0.20926483154296877,-0.6068380737304688,0.007633587786259542,0.0,0.007633587786259542
0.8430468750000001,0.15238311767578125,-0.6134243774414063,-0.030534351145038167,-0.030534351145038167,-0.007633587786259542
0.6607260131835938,0.3694317626953125,-0.9439370727539063,-0.5267175572519084,-0.0916030534351145,0.12213740458015267
0.8104147338867188,0.7176077270507812,-0.8882528686523438,-0.22900763358778625,0.007633587786259542,0.2900763358778626
0.7981402587890626,1.131347351074219,-0.5155279541015625,-0.8702290076335878,-0.17557251908396945,0.25190839694656486
0.10747650146484375,0.6083349609375001,0.7538323974609376,-0.6183206106870229,-0.6259541984732824,0.15267175572519084
-0.5777984619140625,1.0876382446289063,0.9867480468750001,-0.42748091603053434,-1.1526717557251909,0.10687022900763359
-1.3439053344726564,1.4040802001953125,0.44068359375000005,-0.15267175572519084,-1.4122137404580153,-0.1984732824427481
-1.3406121826171875,1.146016845703125,0.125738525390625,-0.03816793893129771,-1.4122137404580153,-0.21374045801526717
-0.031734008789062504,0.6840774536132813,0.6316864013671876,0.09923664122137404,-0.8167938931297709,0.05343511450381679
1.2618759155273438,0.6762936401367188,0.7214996337890626,-0.34351145038167935,0.015267175572519083,0.38167938931297707
0.8478369140625001,0.6532415771484376,0.944835205078125,0.007633587786259542,0.19083969465648853,0.19083969465648853
0.6313870239257813,0.5757028198242188,1.4073733520507814,-0.0916030534351145,1.0,0.20610687022900762
1.1726614379882814,0.238304443359375,1.50167724609375,0.29770992366412213,1.9389312977099236,0.3053435114503817
0.7358697509765625,0.11765533447265626,0.47451324462890626,0.022900763358778626,1.0381679389312977,0.08396946564885496
0.209564208984375,0.8945397949218751,0.0059875488281250005,0.07633587786259542,0.7251908396946565,0.0
0.8810678100585938,0.39547760009765626,0.46882507324218753,0.9083969465648855,0.007633587786259542,0.0916030534351145
1.4914984130859377,-0.67779052734375,-0.6146218872070313,1.4198473282442747,0.061068702290076333,0.21374045801526717
1.2202624511718752,-0.6571334838867188,-0.7589218139648438,0.6183206106870229,0.12213740458015267,-0.03816793893129771
1.3226495361328126,-0.2377056884765625,-0.47870452880859377,0.0916030534351145,0.1297709923664122,-0.11450381679389313
1.0002200317382812,-0.35865417480468753,0.08652008056640625,0.8549618320610687,-0.03816793893129771,-0.007633587786259542
1.2034973144531251,-1.35797607421875,0.054187316894531254,0.7022900763358778,0.03816793893129771,-0.10687022900763359
1.2256512451171875,-1.6073574829101562,0.16136444091796875,0.7022900763358778,-0.05343511450381679,-0.2595419847328244
1.477427673339844,-1.829794921875,0.5739065551757813,1.0076335877862594,-0.11450381679389313,-0.3893129770992366
0.750838623046875,-1.7312997436523438,1.354383544921875,1.8702290076335877,-0.3511450381679389,-0.5343511450381679
0.40655456542968754,-0.6376739501953125,1.6983682250976564,1.366412213740458,-0.9770992366412213,-0.06870229007633588
0.086220703125,-0.23201751708984375,1.2337344360351563,-0.007633587786259542,-1.7862595419847327,0.1450381679389313
0.8220904541015626,-0.55803955078125,0.137713623046875,-0.17557251908396945,-1.6946564885496183,0.10687022900763359
1.021475830078125,-0.43739044189453125,-0.39248382568359375,0.1297709923664122,-1.2900763358778626,0.1450381679389313
1.3510903930664062,-0.18770965576171875,-0.7098239135742188,-0.20610687022900762,-0.8167938931297709,-0.007633587786259542
1.4897021484375002,-0.4808001708984375,-0.25836273193359377,0.4427480916030534,-0.21374045801526717,0.1297709923664122
1.4325210571289064,-0.19639160156250002,0.15597564697265626,0.10687022900763359,0.0916030534351145,0.1297709923664122
1.4666500854492188,-0.3418890380859375,0.26614654541015625,-0.03816793893129771,0.48854961832061067,0.3053435114503817
1.2630734252929687,-0.7128176879882813,0.18291961669921875,-0.366412213740458,1.4198473282442747,0.7175572519083969
1.2792398071289064,-0.604742431640625,1.2630734252929687,-0.4580152671755725,1.7786259541984732,0.9465648854961831
1.5576608276367188,-0.7870632934570313,1.8863772583007814,-0.24427480916030533,0.7557251908396946,0.5038167938931297
1.117276611328125,-0.44068359375000005,0.6415658569335938,0.04580152671755725,0.42748091603053434,0.3893129770992366
0.9873468017578125,0.5667214965820313,-0.3592529296875,-0.29770992366412213,0.42748091603053434,0.38167938931297707
1.0451266479492187,0.3203338623046875,-0.4592449951171875,-0.6183206106870229,0.10687022900763359,0.183206106870229
1.2765454101562501,0.051492919921875005,-0.128133544921875,-0.48854961832061067,0.030534351145038167,0.12213740458015267
1.3130694580078126,0.8427474975585938,0.0999920654296875,-0.16793893129770993,-0.015267175572519083,0.1297709923664122
1.1768527221679688,0.5562432861328125,-0.2137554931640625,-0.13740458015267176,-0.03816793893129771,0.0
1.2903167724609375,0.8074209594726562,-0.34907409667968753,-0.007633587786259542,0.0,-0.03816793893129771
1.0771600341796876,0.8217910766601563,-0.21704864501953125,-0.04580152671755725,-0.04580152671755725,-0.022900763358778626
1.124461669921875,0.8259823608398438,-0.4086502075195313,0.0,-0.022900763358778626,-0.007633587786259542
1.02746337890625,0.6819818115234375,-0.3688330078125,0.09923664122137404,0.022900763358778626,-0.007633587786259542
1.0663824462890625,0.779578857421875,-0.3879931640625,-0.04580152671755725,0.030534351145038167,0.015267175572519083
1.0454260253906251,0.5769003295898438,-0.5206173706054688,-0.1450381679389313,0.08396946564885496,-0.015267175572519083
1.10410400390625,0.30895751953125,-0.21764739990234377,0.17557251908396945,0.07633587786259542,0.07633587786259542
-0.061671752929687504,1.9920574951171877,-1.0636880493164063,-1.4045801526717556,-0.6793893129770993,0.16030534351145037
-1.32205078125,0.5152285766601563,-0.24489074707031253,-0.42748091603053434,-1.381679389312977,-0.15267175572519084
-1.2412188720703126,0.7649093627929688,-0.018262023925781252,-0.38167938931297707,-1.8854961832061068,-0.38167938931297707
-0.7954458618164063,0.6550378417968751,-0.09280700683593751,0.030534351145038167,-1.732824427480916,-0.2748091603053435
-0.09490264892578125,0.7813751220703126,0.6152206420898437,0.6106870229007634,-1.2442748091603053,0.030534351145038167
0.329315185546875,1.2031979370117187,0.8990304565429688,0.3511450381679389,-0.41221374045801523,0.40458015267175573
0.6089337158203125,0.7616162109375001,1.0915301513671876,0.2900763358778626,0.16030534351145037,0.48854961832061067
1.2352313232421877,0.7155120849609375,0.6140231323242188,0.07633587786259542,0.8778625954198473,0.16793893129770993
1.340911560058594,0.33141082763671875,0.036524047851562505,0.08396946564885496,1.7557251908396947,0.061068702290076333
1.3906082153320314,0.4721182250976563,0.8128097534179688,-0.26717557251908397,2.030534351145038,-0.015267175572519083
0.33320709228515627,1.00351318359375,1.5714321899414063,0.19083969465648853,0.6946564885496183,0.11450381679389313
0.7241940307617187,0.9301657104492188,-0.23680755615234375,0.21374045801526717,0.22900763358778625,0.19083969465648853
1.543590087890625,-0.9148974609375,-0.444276123046875,1.0305343511450382,0.2900763358778626,-0.007633587786259542
1.1825408935546875,-1.0666818237304687,-0.5601351928710938,1.0381679389312977,0.1297709923664122,0.0
1.3897100830078126,-1.2972024536132813,-0.209564208984375,0.6793893129770993,-0.09923664122137404,0.015267175572519083
1.2433145141601563,-1.071771240234375,0.7598199462890626,0.6946564885496183,-0.15267175572519084,-0.08396946564885496
-0.19669097900390625,-0.9487271118164063,1.638193359375,0.07633587786259542,-1.1221374045801527,-0.5190839694656488
-0.40386016845703127,-0.8804690551757813,0.7661068725585938,0.24427480916030533,-1.8396946564885495,-0.9923664122137404
-0.07095245361328126,-0.20207977294921875,-0.28680358886718754,0.19083969465648853,-1.6793893129770991,-1.0229007633587786
0.7421566772460938,-0.008382568359375,-0.5385800170898438,0.4961832061068702,-1.2595419847328244,-0.6412213740458015
1.20948486328125,-0.056582336425781254,-0.16196319580078125,0.4351145038167939,-0.8702290076335878,-0.33587786259541985
1.45856689453125,-0.6721023559570313,0.5077441406250001,0.38167938931297707,-0.5877862595419847,-0.10687022900763359
1.2507989501953125,-0.09669891357421875,-0.025746459960937502,0.03816793893129771,-0.25190839694656486,0.1297709923664122
1.21427490234375,-0.7241940307617187,-0.4891827392578125,-0.015267175572519083,0.9847328244274809,0.2748091603053435
1.0439291381835938,-1.2199630737304688,0.31674133300781254,-0.6793893129770993,2.0381679389312977,0.8549618320610687
0.6388714599609375,-1.1909234619140625,1.5983761596679689,-0.6106870229007634,1.5419847328244274,0.6717557251908397
1.054706726074219,-0.6553372192382813,1.0963201904296875,0.3053435114503817,0.38167938931297707,0.47328244274809156
1.3427078247070314,0.408350830078125,-0.7753875732421875,-0.3969465648854962,0.17557251908396945,0.3053435114503817
1.375938720703125,-0.00928070068359375,-0.41433837890625,-0.8473282442748091,0.030534351145038167,0.0
1.4941928100585937,0.28530670166015626,-0.039517822265625,-0.3053435114503817,0.061068702290076333,0.030534351145038167
1.2981005859375,0.4999603271484375,-0.046403503417968756,-0.29770992366412213,-0.03816793893129771,0.007633587786259542
1.2648696899414062,0.5206173706054688,-0.0425115966796875,0.12213740458015267,-0.0916030534351145,-0.05343511450381679
1.3555810546875,0.5748046875,-0.65384033203125,-0.015267175572519083,0.015267175572519083,0.007633587786259542
1.2088861083984375,0.5861810302734375,-0.386795654296875,-0.007633587786259542,0.007633587786259542,-0.015267175572519083
1.2283456420898438,0.32602203369140625,-0.45684997558593754,0.007633587786259542,-0.022900763358778626,-0.022900763358778626
1.074166259765625,0.5260061645507813,-0.55564453125,-0.03816793893129771,-0.007633587786259542,-0.007633587786259542
1.0077044677734375,0.5763015747070312,-0.6487509155273438,-0.26717557251908397,-0.09923664122137404,0.022900763358778626
0.8382568359375,0.37092864990234375,-0.7753875732421875,-0.0916030534351145,-0.1450381679389313,0.12213740458015267
0.3882925415039063,0.9119036865234376,0.0592767333984375,-0.5038167938931297,-0.5572519083969465,0.23664122137404578
-0.3703298950195313,0.8023315429687501,-0.10538085937500001,-0.9923664122137404,-1.3129770992366412,0.08396946564885496
-0.9550140380859375,0.6607260131835938,0.5858816528320313,0.08396946564885496,-1.4885496183206106,-0.007633587786259542
-0.6855743408203125,0.7846682739257813,0.62031005859375,0.4809160305343511,-1.297709923664122,0.2748091603053435
-0.37811370849609377,1.117276611328125,0.055085449218750006,-0.37404580152671757,-1.1603053435114503,0.26717557251908397
0.22243743896484375,0.8475375366210938,0.3116519165039063,-0.24427480916030533,-0.6717557251908397,0.16793893129770993
0.827479248046875,0.4796026611328125,1.4588662719726564,0.030534351145038167,0.05343511450381679,0.21374045801526717
1.0289602661132813,0.4152365112304688,0.6185137939453126,0.09923664122137404,1.198473282442748,0.5190839694656488
1.3316308593750001,0.7214996337890626,0.4385879516601563,-0.022900763358778626,1.8473282442748091,0.6717557251908397
1.1142828369140625,0.3170407104492188,1.5028747558593751,-0.2748091603053435,1.748091603053435,0.6335877862595419
0.846639404296875,-0.03742218017578125,0.03263214111328125,1.0,0.5801526717557252,0.21374045801526717
0.8894503784179688,0.5804928588867188,-0.6469546508789062,1.129770992366412,0.41221374045801523,0.12213740458015267
1.1274554443359375,0.106578369140625,-0.10508148193359376,0.4809160305343511,-0.03816793893129771,0.030534351145038167
1.313668212890625,-0.48109954833984375,-0.4005670166015625,0.9312977099236641,-0.061068702290076333,-0.07633587786259542
0.7682025146484376,-0.7415579223632813,-0.35775604248046877,0.7938931297709924,-0.12213740458015267,-0.15267175572519084
1.6316070556640625,-1.5223342895507814,-0.24908203125,1.3358778625954197,-0.07633587786259542,-0.29770992366412213
1.2636721801757813,-1.89446044921875,0.264649658203125,1.6106870229007633,-0.061068702290076333,-0.3969465648854962
0.7747888183593751,-1.4992822265625,1.4426998901367187,1.6106870229007633,-0.4351145038167939,-0.5801526717557252
-0.4763095092773438,-0.37751495361328125,1.5932867431640625,0.46564885496183206,-1.7862595419847327,-0.21374045801526717
-0.024548950195312502,-0.09849517822265626,0.08412506103515625,-0.061068702290076333,-1.916030534351145,-0.11450381679389313
0.700543212890625,-0.32482452392578126,-0.8041278076171875,0.32061068702290074,-1.465648854961832,0.015267175572519083
1.2696597290039062,-0.6074368286132813,-0.8690927124023438,-0.23664122137404578,-0.8625954198473282,0.12213740458015267
1.4253359985351564,-0.1335223388671875,-0.3811074829101563,0.0,-0.282442748091603,0.030534351145038167
1.2283456420898438,-0.24040008544921876,-0.22153930664062502,-0.022900763358778626,0.8244274809160305,0.47328244274809156
1.157991943359375,-0.9086105346679688,-0.21704864501953125,-0.40458015267175573,1.7557251908396947,0.8854961832061068
1.2499008178710938,-1.05141357421875,1.5540682983398437,-0.46564885496183206,1.3587786259541985,1.015267175572519
1.3588742065429689,-0.5709127807617188,1.6603472900390626,-0.8091603053435115,0.6335877862595419,0.7862595419847328
1.3822256469726564,-0.6577322387695312,0.737666015625,-0.25190839694656486,0.12213740458015267,0.5114503816793893
1.3211526489257812,0.5245092773437501,-0.5694158935546876,0.12213740458015267,0.2213740458015267,0.3969465648854962
1.1178753662109375,0.6044430541992187,-0.4125421142578125,-0.366412213740458,0.04580152671755725,0.05343511450381679
1.7157321166992188,0.48109954833984375,0.07813751220703126,-0.35877862595419846,-0.061068702290076333,0.07633587786259542
1.3573773193359375,0.6242019653320313,-0.14190490722656252,0.1984732824427481,0.05343511450381679,0.08396946564885496
1.320853271484375,0.5469625854492188,-0.32332763671875003,-0.08396946564885496,-0.04580152671755725,-0.007633587786259542
1.2349319458007812,0.5739065551757813,-0.3347039794921875,0.10687022900763359,-0.022900763358778626,-0.030534351145038167
1.2079879760742187,0.45146118164062504,-0.5167254638671875,0.13740458015267176,0.007633587786259542,-0.015267175572519083
1.131646728515625,0.536484375,-0.49517028808593755,0.05343511450381679,-0.007633587786259542,-0.015267175572519083
1.1666738891601562,0.37122802734375004,-0.5858816528320313,-0.007633587786259542,0.007633587786259542,-0.007633587786259542
1.1271560668945313,0.3972738647460938,-0.5068460083007813,0.007633587786259542,0.0,-0.007633587786259542
1.0400372314453126,0.40236328125000004,-0.5469625854492188,-0.06870229007633588,0.0,0.007633587786259542
0.8161029052734375,0.7313790893554688,-0.8484356689453125,-0.6030534351145038,-0.022900763358778626,-0.007633587786259542
1.0532098388671876,0.39697448730468754,-0.6628216552734375,-0.16030534351145037,-0.19083969465648853,0.15267175572519084
-0.2293231201171875,1.1858340454101564,-0.089813232421875,-0.6946564885496183,-0.9770992366412213,0.15267175572519084
-0.8906478881835938,0.6556365966796875,0.23501129150390626,-0.5038167938931297,-1.4580152671755724,0.03816793893129771
-0.9568103027343751,0.858614501953125,0.29758117675781254,-0.05343511450381679,-1.465648854961832,0.12213740458015267
-0.7235952758789063,1.1142828369140625,0.09101074218750001,-0.183206106870229,-1.2519083969465647,0.08396946564885496
0.08352630615234376,0.8987310791015626,0.4640350341796875,0.13740458015267176,-0.9236641221374046,0.183206106870229
0.5490582275390625,1.0211764526367189,0.6816824340820313,0.26717557251908397,-0.4809160305343511,0.23664122137404578
0.9657916259765625,1.0427316284179688,0.686173095703125,0.07633587786259542,-0.20610687022900762,0.3969465648854962
1.1118878173828126,1.025068359375,0.8481362915039063,-0.20610687022900762,0.2595419847328244,0.38167938931297707
1.2040960693359375,0.4939727783203125,0.6008505249023438,-0.030534351145038167,1.6717557251908397,0.45038167938931295
0.4493655395507813,0.16076568603515626,2.019899597167969,0.0,0.83206106870229,-0.022900763358778626
0.8056246948242188,0.5574407958984375,1.0271640014648438,0.6106870229007634,0.6717557251908397,0.08396946564885496
0.825084228515625,0.5397775268554688,-0.8655001831054688,1.1603053435114503,0.6641221374045801,0.09923664122137404
0.4628375244140625,1.5567626953125,0.31374755859375003,-0.33587786259541985,-0.05343511450381679,-0.015267175572519083
1.2352313232421877,-1.146016845703125,-0.6496490478515625,2.0610687022900764,0.3129770992366412,0.12213740458015267
1.695374450683594,-0.9226812744140626,-0.5936654663085937,1.2671755725190839,0.2748091603053435,-0.04580152671755725
1.3385165405273438,-1.8738034057617188,-0.08771759033203125,0.7099236641221374,0.022900763358778626,-0.183206106870229
1.1861334228515625,-2.249222717285156,0.3050656127929688,1.4961832061068703,-0.08396946564885496,-0.282442748091603
-0.087418212890625,-1.2217593383789063,1.09931396484375,1.3893129770992365,-1.1450381679389312,-0.29770992366412213
-0.5325924682617188,0.14938934326171877,0.3251239013671875,-0.06870229007633588,-1.900763358778626,-0.282442748091603
0.7942483520507813,-0.07574249267578126,-0.6280938720703125,-0.6106870229007634,-1.6335877862595418,-0.5343511450381679
1.2546908569335937,-0.00808319091796875,-0.5789959716796875,0.3511450381679389,-0.9694656488549618,-0.183206106870229
1.6181350708007813,-0.1119671630859375,-0.43828857421875,-0.2213740458015267,-0.47328244274809156,-0.07633587786259542
1.2915142822265626,0.20447479248046876,-0.2966830444335938,-0.07633587786259542,-0.1450381679389313,0.24427480916030533
1.3238470458984375,-0.032931518554687504,-0.20118164062500002,-0.16030534351145037,0.5572519083969465,0.4351145038167939
1.753154296875,-0.5697152709960938,0.0999920654296875,0.05343511450381679,1.3053435114503815,0.6564885496183206
1.7022601318359376,-0.8122109985351563,0.680185546875,-0.366412213740458,1.6259541984732824,0.916030534351145
1.32444580078125,-1.1738589477539063,1.3022918701171875,-0.4351145038167939,1.4274809160305344,0.8549618320610687
1.3651611328125002,-0.2966830444335938,1.3534854125976563,-0.40458015267175573,0.5877862595419847,0.5038167938931297
1.2570858764648438,0.5086422729492188,-0.7942483520507813,-0.45038167938931295,0.15267175572519084,0.3893129770992366
1.2588821411132813,0.09580078125000001,-0.33709899902343754,-0.8625954198473282,-0.015267175572519083,0.06870229007633588
1.8061441040039063,0.041912841796875,-0.22752685546875,-0.6564885496183206,-0.061068702290076333,-0.015267175572519083
0.9801617431640626,0.35865417480468753,-0.06915618896484375,-0.17557251908396945,0.1450381679389313,-0.10687022900763359
1.6528628540039063,0.7403604125976563,0.12005035400390626,-0.08396946564885496,-0.07633587786259542,-0.08396946564885496
1.0918295288085937,0.5182223510742188,-0.5484594726562501,0.4427480916030534,0.030534351145038167,0.030534351145038167
1.5229330444335938,0.6517446899414063,-0.44726989746093754,-0.015267175572519083,-0.007633587786259542,0.0
1.1987072753906252,0.7170089721679688,-0.5993536376953126,0.10687022900763359,0.015267175572519083,0.007633587786259542
1.3460009765625,0.43230102539062504,-0.5011578369140626,0.061068702290076333,0.007633587786259542,0.015267175572519083
1.2289443969726563,0.5029541015625,-0.583187255859375,-0.17557251908396945,0.007633587786259542,0.0
0.8607101440429688,0.5930667114257813,-0.528101806640625,-0.05343511450381679,-0.10687022900763359,-0.022900763358778626
1.2310400390625,1.0963201904296875,-0.8969348144531251,-0.6106870229007634,-0.24427480916030533,-0.1297709923664122
1.0427316284179688,0.91729248046875,-0.513731689453125,-0.7480916030534351,-0.22900763358778625,0.06870229007633588
-0.4343966674804688,0.34907409667968753,0.20746856689453125,-0.3893129770992366,-0.7099236641221374,-0.022900763358778626
-1.1936178588867188,0.30446685791015626,0.4700225830078125,-0.022900763358778626,-1.66412213740458,-0.37404580152671757
-1.2555889892578125,0.6316864013671876,0.124541015625,0.05343511450381679,-1.7862595419847327,-0.4427480916030534
-0.3263214111328125,0.8152047729492188,0.29189300537109375,0.09923664122137404,-1.3435114503816794,-0.26717557251908397
0.5224136352539063,0.6828799438476563,0.5269042968750001,0.3129770992366412,-0.8473282442748091,-0.061068702290076333
0.51971923828125,1.3169613647460938,0.5116360473632813,-0.04580152671755725,-0.1450381679389313,0.1984732824427481
0.5523513793945313,0.5774990844726563,1.1142828369140625,0.11450381679389313,0.7633587786259541,0.3893129770992366
1.1151809692382812,0.28231292724609375,0.9415420532226563,0.12213740458015267,2.1526717557251906,0.8625954198473282
0.73048095703125,-0.42242156982421875,0.6259982299804688,0.9389312977099237,0.7862595419847328,0.1984732824427481
0.9160949707031251,0.2613565063476563,-0.06466552734375,0.8778625954198473,0.03816793893129771,-0.03816793893129771
1.3043875122070314,-0.3511697387695313,-0.48379394531250003,0.8244274809160305,-0.1297709923664122,0.022900763358778626
1.1535012817382813,-0.9936337280273438,-0.7637118530273438,1.1374045801526718,0.015267175572519083,-0.10687022900763359
0.9810598754882813,-1.1241622924804688,-0.17004638671875,1.4351145038167938,0.061068702290076333,-0.25190839694656486
1.8785934448242188,-2.0157083129882816,0.6008505249023438,1.297709923664122,-0.061068702290076333,-0.4198473282442748
1.1771520996093752,-1.560355224609375,0.583187255859375,2.045801526717557,-0.13740458015267176,-0.282442748091603
0.4209246826171875,-0.031734008789062504,1.5717315673828125,0.3893129770992366,-0.5954198473282443,-0.11450381679389313
0.08831634521484376,-0.03742218017578125,1.9767892456054688,0.46564885496183206,-1.549618320610687,0.2748091603053435
-0.0041912841796875,-0.164058837890625,0.28261230468750004,-0.6870229007633587,-2.045801526717557,0.15267175572519084
0.8876541137695313,-0.5125341796875,-0.7035369873046875,-0.183206106870229,-1.6564885496183206,-0.1984732824427481
1.5624508666992187,-0.076640625,-0.8424481201171875,0.05343511450381679,-1.0305343511450382,-0.007633587786259542
1.6714242553710938,-0.3769161987304688,-0.48289581298828127,0.07633587786259542,-0.45038167938931295,0.0916030534351145
0.8930429077148438,-0.39428009033203126,-0.00748443603515625,0.05343511450381679,1.129770992366412,0.7099236641221374
1.2927117919921876,-1.1481124877929687,0.4544549560546875,0.08396946564885496,1.9312977099236641,1.1526717557251909
1.675316162109375,-0.9418414306640626,1.1088940429687502,-0.33587786259541985,1.66412213740458,0.7480916030534351
0.8125103759765625,-1.4088702392578125,1.6977694702148438,0.022900763358778626,0.8931297709923663,0.46564885496183206
1.1127859497070314,-0.24998016357421876,0.42840911865234377,0.22900763358778625,0.5267175572519084,0.15267175572519084
1.1927197265625,-0.34907409667968753,-0.46762756347656254,0.06870229007633588,-0.3053435114503817,0.0
1.3630654907226563,-0.0688568115234375,-0.3649411010742188,-0.34351145038167935,0.03816793893129771,0.0
1.081351318359375,0.6170169067382812,0.178428955078125,-0.09923664122137404,-0.09923664122137404,0.08396946564885496
1.0433303833007812,0.277822265625,-0.33799713134765624,-0.07633587786259542,-0.04580152671755725,-0.03816793893129771
1.2451107788085938,0.62989013671875,-0.30177246093750004,-0.17557251908396945,0.015267175572519083,0.06870229007633588
1.1190728759765625,0.43649230957031254,-0.51013916015625,0.030534351145038167,0.022900763358778626,0.015267175572519083
1.1217672729492187,0.30895751953125,-0.49067962646484375,0.1297709923664122,0.022900763358778626,0.022900763358778626
0.9756710815429688,0.258662109375,-0.5391787719726563,-0.007633587786259542,0.030534351145038167,-0.015267175572519083
0.9867480468750001,0.1850152587890625,-0.5325924682617188,0.06870229007633588,0.015267175572519083,-0.015267175572519083
0.7885601806640625,0.3023712158203125,-0.8322692871093751,-0.10687022900763359,0.0,0.015267175572519083
0.8726852416992188,0.8795709228515626,-1.0127938842773438,-0.9236641221374046,-0.13740458015267176,0.1297709923664122
1.0759625244140625,0.7571255493164063,-0.40625518798828125,-0.732824427480916,-0.35877862595419846,0.16793893129770993
-0.446671142578125,1.1475137329101563,0.7158114624023438,-0.5572519083969465,-0.7022900763358778,0.2748091603053435
-1.2702584838867188,0.640667724609375,0.5993536376953126,-0.08396946564885496,-1.6030534351145038,0.04580152671755725
-1.4938934326171875,1.0541079711914063,-0.03861968994140625,-0.549618320610687,-1.7557251908396947,-0.23664122137404578
-0.5679190063476562,0.74964111328125,0.30865814208984377,-0.04580152671755725,-1.3435114503816794,-0.26717557251908397
-0.18291961669921875,1.0065069580078125,0.8113128662109376,0.3282442748091603,-0.9847328244274809,-0.05343511450381679
0.47840515136718753,0.7382647705078126,1.1870315551757813,0.21374045801526717,-0.45038167938931295,0.05343511450381679
0.8969348144531251,1.04662353515625,1.0954220581054688,0.015267175572519083,0.38167938931297707,0.26717557251908397
0.43828857421875,0.35895355224609377,0.18351837158203127,-0.1450381679389313,1.3435114503816794,0.6946564885496183
0.5188211059570312,0.7738906860351563,0.6906637573242188,-0.6259541984732824,1.8396946564885495,0.8625954198473282
0.9370513916015626,0.38619689941406254,2.1932391357421874,-0.41221374045801523,1.66412213740458,0.8778625954198473
1.0328521728515625,-0.523311767578125,0.2556683349609375,1.1832061068702289,0.6870229007633587,0.2595419847328244
0.9657916259765625,0.4206253051757813,-0.49906219482421876,0.9083969465648855,-0.061068702290076333,0.015267175572519083
1.242715759277344,-0.5020559692382813,-0.8164022827148438,1.099236641221374,0.0,0.015267175572519083
1.2627740478515626,-0.8921447753906251,-0.5571414184570312,1.1603053435114503,0.03816793893129771,-0.11450381679389313
1.6911831665039063,-1.902843017578125,-0.3359014892578125,1.5190839694656488,0.10687022900763359,-0.3129770992366412
1.6429833984375002,-2.0384609985351565,0.006286926269531251,1.9389312977099236,0.015267175572519083,-0.366412213740458
0.1071771240234375,-1.239422607421875,0.8625064086914063,1.015267175572519,-0.6030534351145038,-0.2595419847328244
-0.0056881713867187505,-0.1071771240234375,1.56873779296875,0.1450381679389313,-1.5954198473282442,-0.2595419847328244
0.0718505859375,-0.5224136352539063,0.786763916015625,-0.20610687022900762,-1.8702290076335877,-0.41221374045801523
0.718505859375,0.027542724609375003,-0.9547146606445313,0.03816793893129771,-1.099236641221374,-0.2213740458015267
1.4879058837890626,-0.22034179687500002,-0.6927593994140625,0.6259541984732824,-0.5419847328244275,0.061068702290076333
1.01788330078125,-0.46343627929687503,-0.26794281005859377,0.1297709923664122,0.06870229007633588,0.2900763358778626
1.2783416748046876,-0.5535488891601563,-0.429906005859375,0.20610687022900762,1.213740458015267,0.5954198473282443
1.4331198120117188,-0.8903485107421876,-0.07933502197265625,-0.17557251908396945,2.045801526717557,0.9465648854961831
0.26345214843750003,-1.1418255615234376,1.3945001220703126,-0.5725190839694656,1.1755725190839694,0.46564885496183206
1.1385324096679688,0.06975494384765625,1.0867401123046876,-0.183206106870229,0.45038167938931295,0.3282442748091603
0.9023236083984375,0.6179150390625,-0.46373565673828127,0.6335877862595419,-0.06870229007633588,0.6564885496183206
1.3070819091796875,0.2532733154296875,-0.3754193115234375,-0.4809160305343511,-0.17557251908396945,0.1450381679389313
1.6301101684570314,-0.5658233642578125,-0.04580474853515625,-0.2900763358778626,-0.015267175572519083,0.19083969465648853
1.411864013671875,0.19160156250000002,-0.27063720703125,-0.16793893129770993,0.04580152671755725,-0.061068702290076333
1.0301577758789062,1.054706726074219,-0.523311767578125,-0.366412213740458,0.07633587786259542,-0.09923664122137404
1.2034973144531251,0.350870361328125,-0.39398071289062503,0.3282442748091603,0.022900763358778626,0.03816793893129771
1.13763427734375,0.5703140258789062,-0.34757720947265625,0.03816793893129771,0.022900763358778626,0.022900763358778626
1.0412347412109375,0.7993377685546875,-0.4427792358398438,-0.007633587786259542,0.0,0.007633587786259542
1.119671630859375,0.4912783813476563,-0.5571414184570312,0.0916030534351145,0.022900763358778626,-0.007633587786259542
1.1082952880859376,0.46493316650390626,-0.5613327026367188,-0.022900763358778626,0.022900763358778626,0.007633587786259542
1.0071057128906251,0.5798941040039063,-0.67779052734375,-0.3893129770992366,-0.022900763358778626,-0.007633587786259542
1.0328521728515625,0.8113128662109376,-0.5415737915039063,-0.13740458015267176,-0.030534351145038167,-0.061068702290076333
1.0651849365234376,0.7667056274414062,-0.5661227416992187,-0.2595419847328244,-0.10687022900763359,-0.03816793893129771
0.7379653930664063,0.7493417358398438,-0.425115966796875,-0.2900763358778626,-0.25190839694656486,-0.022900763358778626
-0.04101470947265625,0.30296997070312504,0.19070343017578126,0.1984732824427481,-0.7709923664122137,-0.061068702290076333
-1.4247372436523438,1.2361294555664064,0.0221539306640625,-0.42748091603053434,-1.4580152671755724,-0.0916030534351145
-0.9544152832031251,0.5577401733398438,-0.080233154296875,-0.06870229007633588,-1.816793893129771,-0.2595419847328244
-0.0056881713867187505,0.5421725463867187,0.7235952758789063,-0.0916030534351145,-1.0763358778625953,-0.0916030534351145
0.7798782348632813,0.33799713134765624,1.169667663574219,0.6412213740458015,-0.5190839694656488,0.08396946564885496
0.19070343017578126,0.7104226684570313,0.9993218994140626,-0.12213740458015267,-0.07633587786259542,0.1297709923664122
0.5882766723632813,0.2871029663085938,0.6948550415039063,0.1297709923664122,1.618320610687023,0.4580152671755725
0.3897894287109375,-0.27422973632812503,1.8318905639648437,-0.3969465648854962,1.5114503816793892,0.4351145038167939
0.87897216796875,0.13442047119140627,1.537303161621094,0.366412213740458,0.6870229007633587,0.15267175572519084
0.5122348022460937,0.25926086425781253,-0.9568103027343751,1.580152671755725,0.7709923664122137,0.21374045801526717
0.9113049316406251,0.28680358886718754,-0.04340972900390625,0.8244274809160305,0.007633587786259542,0.061068702290076333
1.4034814453125,-0.7355703735351563,-0.5960604858398438,1.045801526717557,0.015267175572519083,-0.015267175572519083
1.2199630737304688,-1.0756631469726563,-0.39547760009765626,1.1526717557251909,0.16030534351145037,-0.21374045801526717
1.4831158447265627,-1.4786251831054689,0.18591339111328126,1.16793893129771,0.07633587786259542,-0.3053435114503817
1.1322454833984374,-2.6165588378906253,1.4588662719726564,1.916030534351145,-0.5114503816793893,-0.40458015267175573
-0.335302734375,-1.2711566162109376,1.74357421875,0.648854961832061,-1.5038167938931297,-0.23664122137404578
-0.27063720703125,-0.738863525390625,0.47062133789062505,-0.2595419847328244,-1.8396946564885495,-0.3969465648854962
0.4409829711914063,-0.47451324462890626,-0.6571334838867188,-0.32061068702290074,-1.549618320610687,-0.648854961832061
0.9577084350585938,-0.0496966552734375,-0.6550378417968751,0.3053435114503817,-1.045801526717557,-0.4427480916030534
1.2109817504882814,0.18052459716796876,-0.6062393188476562,-0.34351145038167935,0.2213740458015267,0.15267175572519084
1.5564633178710938,-0.14519805908203126,-0.0940045166015625,-0.04580152671755725,1.0305343511450382,0.6259541984732824
1.8923648071289063,-1.0352471923828126,0.7807763671875,-0.22900763358778625,1.8778625954198473,1.2748091603053435
0.8891510009765625,-1.81302978515625,1.7205221557617187,-0.32061068702290074,1.099236641221374,0.7633587786259541
1.3989907836914064,-0.7831713867187501,1.0505154418945313,-0.07633587786259542,0.8091603053435115,0.6030534351145038
0.9846524047851563,1.1391311645507813,-0.5385800170898438,-1.2213740458015268,0.17557251908396945,0.45038167938931295
1.289418640136719,-0.37511993408203126,-0.5056484985351563,-0.13740458015267176,-0.08396946564885496,0.17557251908396945
1.0388397216796876,-0.8337661743164063,-0.277822265625,0.25190839694656486,-0.09923664122137404,0.0
1.5747253417968752,0.4400848388671875,-0.4436773681640625,-1.297709923664122,-0.22900763358778625,-0.21374045801526717
1.3451028442382813,0.1682501220703125,-0.4646337890625,-0.6030534351145038,-0.03816793893129771,-0.2900763358778626
0.9954299926757812,1.0062075805664064,-0.31644195556640625,-0.07633587786259542,0.22900763358778625,-0.3511450381679389
0.9136999511718751,1.5223342895507814,1.4127621459960937,0.5801526717557252,-0.22900763358778625,0.2595419847328244
1.1588900756835938,0.08292755126953126,-0.5313949584960938,0.7251908396946565,0.007633587786259542,0.16793893129770993
1.2151730346679688,0.6649172973632813,-0.6334826660156251,-0.06870229007633588,0.030534351145038167,0.03816793893129771
1.1088940429687502,0.19190093994140625,-0.7274871826171876,-0.03816793893129771,0.08396946564885496,-0.030534351145038167
1.0379415893554689,0.6400689697265626,-0.45804748535156253,-0.183206106870229,0.04580152671755725,-0.04580152671755725
1.0343490600585938,0.5703140258789062,-0.30895751953125,-0.3129770992366412,-0.07633587786259542,0.007633587786259542
1.1777508544921875,0.243094482421875,-0.6436614990234375,0.21374045801526717,0.03816793893129771,0.04580152671755725
1.0376422119140625,0.8948391723632813,-0.6966513061523438,-0.40458015267175573,0.0,-0.022900763358778626
0.7720944213867188,0.4164340209960938,-0.35745666503906254,-0.22900763358778625,-0.1297709923664122,0.04580152671755725
0.41463775634765626,0.2700384521484375,-0.0005987548828125,-0.37404580152671757,-0.7862595419847328,0.12213740458015267
-1.5861016845703126,1.3352233886718752,-0.4068539428710938,-0.9007633587786259,-1.4580152671755724,-0.16030534351145037
-1.3034893798828127,0.5595364379882812,-0.011675720214843751,-0.41221374045801523,-1.618320610687023,-0.23664122137404578
-0.484991455078125,0.75443115234375,0.0077838134765625,0.1297709923664122,-1.2595419847328244,-0.061068702290076333
0.5352868652343751,0.6035449218750001,0.7933502197265625,-0.4198473282442748,-0.83206106870229,-0.05343511450381679
-0.09490264892578125,1.0780581665039064,0.8047265625000001,-0.2595419847328244,-0.061068702290076333,0.2213740458015267
0.41284149169921874,0.6936575317382813,0.4137396240234375,-0.04580152671755725,1.8625954198473282,0.8396946564885496
0.846639404296875,0.427510986328125,1.373543701171875,-0.6183206106870229,2.0534351145038165,0.9083969465648855
0.7023394775390626,-0.8735833740234376,2.5569827270507814,0.5038167938931297,1.0,0.6412213740458015
1.1265573120117187,-0.07604187011718751,0.0149688720703125,0.916030534351145,0.5572519083969465,0.15267175572519084
0.9684860229492188,0.944835205078125,-0.6125262451171876,-0.0916030534351145,-0.06870229007633588,-0.04580152671755725
1.0259664916992188,-0.2601589965820313,-0.5074447631835938,1.5190839694656488,0.09923664122137404,0.022900763358778626
0.8580157470703126,-0.9247769165039063,-0.12963043212890626,1.465648854961832,-0.015267175572519083,-0.061068702290076333
1.5582595825195313,-1.776805114746094,-0.2568658447265625,1.114503816793893,0.0,-0.07633587786259542
1.6375946044921876,-2.5039929199218753,-0.1239422607421875,1.0610687022900762,-0.04580152671755725,-0.1450381679389313
0.0077838134765625,-1.0577005004882813,0.8029302978515626,0.8091603053435115,-0.732824427480916,-0.5190839694656488
0.0580792236328125,-0.6798861694335938,1.13763427734375,0.46564885496183206,-1.381679389312977,-0.5038167938931297
0.1347198486328125,-0.3879931640625,0.7861651611328125,0.16030534351145037,-1.6870229007633588,-0.16030534351145037
0.9190887451171875,-0.40954833984375,-0.5053491210937501,-0.40458015267175573,-1.5267175572519083,-0.23664122137404578
1.2481045532226562,-0.59635986328125,-0.6930587768554688,0.25190839694656486,-1.1374045801526718,-0.2748091603053435
1.1439212036132813,0.07544311523437501,-0.30895751953125,-0.09923664122137404,-0.34351145038167935,0.15267175572519084
1.5525714111328126,-0.8870553588867188,-0.28380981445312503,0.11450381679389313,1.1526717557251909,0.549618320610687
1.5684384155273439,-1.1418255615234376,0.4535568237304688,-0.29770992366412213,1.8931297709923662,1.015267175572519
1.4181509399414063,-1.052611083984375,1.1753558349609377,-0.7709923664122137,1.1526717557251909,0.5954198473282443
1.0241702270507813,-0.8819659423828126,1.4340179443359375,-0.07633587786259542,0.732824427480916,0.48854961832061067
0.05239105224609375,2.0082238769531253,-0.8038284301757813,-0.47328244274809156,0.07633587786259542,0.5877862595419847
1.178349609375,-0.0796343994140625,-0.39248382568359375,0.007633587786259542,-0.007633587786259542,0.1297709923664122
1.3885125732421875,-0.044307861328125,-0.4194277954101563,-0.7633587786259541,-0.17557251908396945,0.12213740458015267
1.3609698486328126,-0.08652008056640625,-0.1838177490234375,-0.9847328244274809,0.05343511450381679,0.1297709923664122
1.4471905517578125,0.743653564453125,-0.2856060791015625,-0.26717557251908397,0.183206106870229,-0.030534351145038167
1.1741583251953125,1.0304571533203126,-0.5697152709960938,0.26717557251908397,0.16793893129770993,-0.0916030534351145
0.6388714599609375,1.3564791870117188,0.21585113525390626,-0.08396946564885496,-0.022900763358778626,-0.03816793893129771
1.213077392578125,0.5769003295898438,-0.316142578125,0.04580152671755725,-0.09923664122137404,0.07633587786259542
1.3355227661132814,0.3894900512695313,-0.585582275390625,0.648854961832061,0.022900763358778626,0.007633587786259542
1.14242431640625,0.4314028930664063,-0.6484515380859376,0.061068702290076333,0.022900763358778626,-0.1450381679389313
1.0606942749023438,0.8289761352539063,-0.28889923095703124,-0.05343511450381679,-0.061068702290076333,0.0
1.1277548217773439,0.24189697265625001,-0.7753875732421875,0.10687022900763359,-0.03816793893129771,-0.022900763358778626
0.6373745727539063,0.22123992919921875,-0.4355941772460938,-0.33587786259541985,-0.17557251908396945,0.0
-0.0748443603515625,0.7373666381835938,-0.124541015625,-0.732824427480916,-1.0305343511450382,0.13740458015267176
-1.3373190307617189,0.39577697753906255,0.5251080322265625,-0.282442748091603,-1.4732824427480915,0.06870229007633588
-1.7438735961914062,0.55324951171875,0.2508782958984375,-0.10687022900763359,-1.618320610687023,0.09923664122137404
-1.397493896484375,0.9104067993164063,-0.540076904296875,-0.26717557251908397,-1.4961832061068703,-0.061068702290076333
0.4293072509765625,0.2616558837890625,0.494571533203125,-0.06870229007633588,-0.564885496183206,0.030534351145038167
0.6679110717773438,0.9190887451171875,1.2549902343750001,-0.06870229007633588,0.1450381679389313,0.26717557251908397
0.8349636840820313,0.29608428955078125,1.0487191772460938,0.11450381679389313,1.1221374045801527,0.16793893129770993
1.0963201904296875,0.26375152587890627,0.26794281005859377,-0.25190839694656486,2.3053435114503817,0.6793893129770993
0.79754150390625,0.5475613403320313,1.8747015380859375,-0.6946564885496183,1.580152671755725,0.6183206106870229
1.1178753662109375,-0.3864962768554688,1.9061361694335939,0.22900763358778625,0.9770992366412213,0.7862595419847328
1.0008187866210938,-0.4517605590820313,-0.699345703125,1.8625954198473282,0.8396946564885496,0.20610687022900762
1.0044113159179688,0.3406915283203125,-0.39577697753906255,0.5725190839694656,-0.022900763358778626,-0.16030534351145037
1.1394305419921875,-0.47601013183593754,-0.28021728515625,0.9312977099236641,-0.007633587786259542,-0.030534351145038167
1.4432986450195313,-1.3319302368164063,-0.14938934326171877,1.114503816793893,-0.06870229007633588,-0.10687022900763359
1.0472222900390626,-2.0447479248046876,0.609532470703125,0.8473282442748091,0.07633587786259542,-0.23664122137404578
-0.9107061767578125,-0.5613327026367188,1.4747332763671877,0.030534351145038167,-1.8931297709923662,-0.41221374045801523
-0.5816903686523438,-0.34637969970703125,-0.0185614013671875,0.0,-1.916030534351145,-0.37404580152671757
0.37781433105468754,-0.38589752197265625,-0.961600341796875,-0.007633587786259542,-1.4809160305343512,-0.3282442748091603
0.9412426757812501,-0.3263214111328125,-0.8520281982421876,0.17557251908396945,-1.045801526717557,-0.1297709923664122
1.0822494506835938,-0.041613464355468754,-0.5586383056640625,-0.06870229007633588,-0.41221374045801523,0.1984732824427481
1.0496173095703125,-0.528101806640625,-0.3823049926757813,0.1450381679389313,0.4580152671755725,0.5114503816793893
0.9532177734375,-1.0684780883789062,-0.32871643066406253,-0.16030534351145037,1.900763358778626,0.8473282442748091
0.8765771484375,-1.204395446777344,2.036964111328125,-0.5954198473282443,1.7862595419847327,1.0610687022900762
1.2576846313476564,-1.44898681640625,1.6516653442382814,0.5038167938931297,1.0229007633587786,0.83206106870229
0.5170248413085938,1.8678158569335939,-1.0454260253906251,-0.7709923664122137,0.3053435114503817,0.35877862595419846
1.638193359375,-0.31225067138671875,-0.47571075439453125,-0.3053435114503817,-0.29770992366412213,0.05343511450381679
1.4250366210937502,-0.722098388671875,-0.39278320312500004,-0.22900763358778625,-0.34351145038167935,-0.04580152671755725
1.6175363159179688,0.42122406005859375,-0.6451583862304687,-1.7251908396946565,-0.3053435114503817,-0.183206106870229
1.0966195678710937,0.4900808715820313,0.047601013183593756,-0.9007633587786259,0.16793893129770993,-0.22900763358778625
0.8325686645507813,1.7190252685546876,0.9792636108398438,-0.3053435114503817,0.21374045801526717,-0.37404580152671757
1.2504995727539063,0.2329156494140625,-0.16435821533203127,1.3740458015267174,0.007633587786259542,-0.03816793893129771
1.2118798828125001,0.918489990234375,-0.6068380737304688,0.6870229007633587,0.11450381679389313,0.10687022900763359
1.2759466552734375,0.30296997070312504,-0.6248007202148438,0.03816793893129771,0.05343511450381679,0.061068702290076333
0.9795629882812501,0.5490582275390625,-0.5134323120117188,0.25190839694656486,0.07633587786259542,0.061068702290076333
0.9693841552734376,0.3496728515625,-0.5766009521484375,0.05343511450381679,-0.07633587786259542,-0.030534351145038167
0.9669891357421876,0.58198974609375,-0.8532257080078125,-0.282442748091603,-0.0916030534351145,-0.061068702290076333
1.01788330078125,0.5697152709960938,-0.7439529418945313,-0.13740458015267176,-0.05343511450381679,-0.030534351145038167
0.9002279663085938,0.8086184692382813,-0.367635498046875,-0.25190839694656486,-0.19083969465648853,0.015267175572519083
-0.48020141601562505,0.4667294311523438,0.6532415771484376,-0.38167938931297707,-0.6870229007633587,0.23664122137404578
-1.5202386474609375,1.2546908569335937,-0.07544311523437501,-0.6946564885496183,-1.549618320610687,0.08396946564885496
-1.601968688964844,0.41733215332031254,-0.18142272949218752,0.2900763358778626,-1.6870229007633588,-0.030534351145038167
-1.0520123291015626,0.5987548828125,-0.31763946533203125,0.06870229007633588,-1.5190839694656488,0.015267175572519083
0.42421783447265626,0.49187713623046875,0.6397695922851563,0.030534351145038167,-0.9007633587786259,0.03816793893129771
0.41164398193359375,0.9110055541992188,1.0089019775390626,0.1450381679389313,-0.33587786259541985,0.3282442748091603
0.590372314453125,0.9340576171875,1.0681787109375,-0.030534351145038167,0.17557251908396945,0.22900763358778625
0.8978329467773438,0.2442919921875,0.3754193115234375,-0.022900763358778626,1.198473282442748,0.2213740458015267
0.8023315429687501,0.17064514160156252,0.762813720703125,-0.35877862595419846,2.068702290076336,0.46564885496183206
0.544866943359375,0.07813751220703126,2.369572448730469,-0.16793893129770993,1.129770992366412,0.25190839694656486
0.18112335205078126,0.22004241943359376,-0.5445675659179687,2.045801526717557,0.183206106870229,0.5419847328244275
1.1475137329101563,0.15358062744140627,-0.48289581298828127,0.9236641221374046,-0.022900763358778626,0.08396946564885496
0.8433462524414063,-1.251098327636719,-0.475411376953125,1.3511450381679388,-0.04580152671755725,-0.061068702290076333
1.4265335083007813,-2.0219952392578127,0.3347039794921875,1.015267175572519,-0.04580152671755725,-0.3282442748091603
0.24758514404296877,-1.4109658813476562,1.7579443359375,0.8473282442748091,-0.7251908396946565,-0.46564885496183206
-0.17154327392578125,-0.13442047119140627,0.8478369140625001,0.09923664122137404,-1.8396946564885495,-0.4427480916030534
0.3841012573242188,-0.22123992919921875,-0.4858895874023438,-0.35877862595419846,-1.6564885496183206,-0.6106870229007634
1.0798544311523437,-0.288599853515625,-0.8313711547851563,0.17557251908396945,-1.0916030534351144,-0.41221374045801523
1.3657598876953125,0.15358062744140627,-0.26914031982421877,0.04580152671755725,-0.37404580152671757,-0.03816793893129771
1.5417938232421875,-0.4613406372070313,-0.14669494628906252,0.20610687022900762,0.6641221374045801,0.15267175572519084
1.7759069824218752,-0.7511380004882813,0.18591339111328126,-0.015267175572519083,1.4274809160305344,0.6564885496183206
1.120869140625,-0.9334588623046876,0.5843847656250001,-0.47328244274809156,1.6870229007633588,0.5877862595419847
0.46074188232421875,-0.8412506103515626,1.5789166259765626,-0.9007633587786259,0.9389312977099237,0.5114503816793893
1.0148895263671875,-0.118553466796875,1.2283456420898438,-0.7709923664122137,0.4809160305343511,0.48854961832061067
1.0439291381835938,0.6505471801757813,0.00928070068359375,-0.4351145038167939,0.0,0.48854961832061067
1.1882290649414062,0.16854949951171877,-0.6137237548828125,-0.35877862595419846,0.022900763358778626,0.17557251908396945
1.5669415283203125,0.32572265625,-0.40266265869140627,-0.6106870229007634,-0.0916030534351145,-0.12213740458015267
1.3253439331054688,0.5619314575195313,-0.13921051025390627,-0.061068702290076333,0.015267175572519083,-0.183206106870229
1.2783416748046876,0.8008346557617188,-0.082628173828125,-0.32061068702290074,0.007633587786259542,0.06870229007633588
0.9852511596679688,0.8029302978515626,-0.3047662353515625,0.007633587786259542,0.04580152671755725,0.06870229007633588
1.2121792602539063,0.7080276489257813,-0.446671142578125,0.1297709923664122,0.007633587786259542,0.015267175572519083
1.2804373168945313,0.6819818115234375,-0.4397854614257813,-0.05343511450381679,-0.007633587786259542,0.0
1.1927197265625,0.6224057006835938,-0.5155279541015625,0.10687022900763359,-0.007633587786259542,0.0
1.229543151855469,0.5760021972656251,-0.580792236328125,0.03816793893129771,0.0,-0.015267175572519083
1.1654763793945313,0.5550457763671875,-0.6164181518554688,-0.03816793893129771,-0.007633587786259542,-0.030534351145038167
1.172362060546875,0.4966671752929688,-0.5930667114257813,-0.015267175572519083,-0.007633587786259542,-0.022900763358778626
1.153201904296875,0.46762756347656254,-0.6325845336914063,0.007633587786259542,-0.007633587786259542,-0.015267175572519083
1.1379336547851564,0.4236190795898438,-0.6451583862304687,-0.03816793893129771,-0.007633587786259542,-0.022900763358778626
1.12326416015625,0.3918850708007813,-0.6176156616210938,-0.015267175572519083,-0.007633587786259542,-0.015267175572519083
1.1115884399414062,0.35715728759765625,-0.640667724609375,0.022900763358778626,0.0,-0.015267175572519083
1.1044033813476564,0.3362008666992188,-0.6888674926757813,0.030534351145038167,0.0,-0.015267175572519083
1.0699749755859376,0.276624755859375,-0.7331753540039063,0.007633587786259542,-0.007633587786259542,-0.022900763358778626
1.0774594116210938,0.2484832763671875,-0.7331753540039063,0.015267175572519083,-0.007633587786259542,-0.015267175572519083
0.99393310546875,0.22632934570312502,-0.79275146484375,-0.015267175572519083,-0.007633587786259542,-0.007633587786259542
0.8247848510742188,0.3514691162109375,-0.9873468017578125,-0.4580152671755725,-0.07633587786259542,0.0
0.652642822265625,0.7110214233398438,-1.1499087524414062,-0.46564885496183206,-0.24427480916030533,-0.030534351145038167
1.0406359863281252,0.9984237670898438,-1.2507989501953125,-0.7862595419847328,-0.4351145038167939,-0.015267175572519083
1.9043399047851564,-0.7834707641601563,0.8041278076171875,0.33587786259541985,-0.45038167938931295,0.03816793893129771
-1.8315911865234376,1.2648696899414062,0.20447479248046876,-0.45038167938931295,-0.7099236641221374,-0.03816793893129771
-1.3786331176757813,0.70174072265625,0.5565426635742188,0.42748091603053434,-1.3358778625954197,-0.1984732824427481
-1.3663586425781251,1.1448193359375,0.16016693115234376,-0.4961832061068702,-1.7251908396946565,-0.16793893129770993
-0.3514691162109375,0.415535888671875,0.2625540161132813,-0.22900763358778625,-1.3969465648854962,-0.37404580152671757
0.31284942626953127,0.5526507568359376,0.9981243896484375,0.09923664122137404,-0.37404580152671757,0.03816793893129771
0.4793032836914063,0.6616241455078126,0.98914306640625,-0.015267175572519083,0.17557251908396945,0.38167938931297707
0.5652246093750001,0.35835479736328124,0.5730084228515625,-0.11450381679389313,1.4122137404580153,0.40458015267175573
0.8238867187500001,-0.29728179931640625,0.8259823608398438,-0.03816793893129771,2.3435114503816794,0.6717557251908397
0.920885009765625,-0.365240478515625,2.0672012329101563,-0.5419847328244275,1.648854961832061,0.3893129770992366
0.7583230590820312,0.07095245361328126,1.5319143676757814,0.37404580152671757,0.7862595419847328,0.2748091603053435
0.5050497436523438,-0.12005035400390626,-0.6741979980468751,1.213740458015267,0.648854961832061,0.15267175572519084
0.6200106811523438,0.9053173828125001,-0.27842102050781253,0.40458015267175573,0.015267175572519083,0.13740458015267176
1.3531860351562501,-1.4109658813476562,-0.7164102172851563,1.2671755725190839,0.22900763358778625,0.08396946564885496
1.2487033081054688,-1.641785888671875,-0.9565109252929688,0.9007633587786259,0.05343511450381679,-0.007633587786259542
1.21427490234375,-1.2771441650390625,-0.3595523071289063,0.7480916030534351,-0.07633587786259542,-0.26717557251908397
0.8990304565429688,-1.2762460327148437,0.40386016845703127,1.6717557251908397,-0.19083969465648853,-0.2748091603053435
-0.5511538696289062,-0.9936337280273438,1.3825250244140626,0.5801526717557252,-1.648854961832061,-0.5038167938931297
-0.061072998046875,0.09669891357421875,0.03592529296875,-0.7404580152671756,-1.9236641221374045,-0.6946564885496183
1.02746337890625,0.037122802734375,-0.9843530273437501,0.4580152671755725,-1.1603053435114503,-0.4809160305343511
1.57831787109375,0.03323089599609375,-0.743653564453125,0.04580152671755725,-0.8244274809160305,-0.3282442748091603
1.5450869750976564,-0.19878662109375,-0.46882507324218753,-0.05343511450381679,-0.24427480916030533,-0.05343511450381679
1.4277310180664062,-0.209564208984375,-0.33410522460937503,-0.13740458015267176,0.20610687022900762,0.2595419847328244
1.5307168579101564,-0.49576904296875,-0.5367837524414063,0.030534351145038167,1.4427480916030533,0.4198473282442748
1.36276611328125,-1.0193801879882813,0.52929931640625,-0.41221374045801523,2.2213740458015265,0.9236641221374046
0.8457412719726562,-1.2370275878906252,1.8462606811523439,-0.8854961832061068,1.648854961832061,0.9007633587786259
1.2936099243164063,-0.6724017333984376,1.5385006713867189,-0.7938931297709924,0.5572519083969465,0.5801526717557252
1.1945159912109375,-0.5601351928710938,0.67060546875,0.07633587786259542,0.183206106870229,0.3129770992366412
1.6462765502929688,-0.09729766845703125,-0.6086343383789062,-0.47328244274809156,-0.05343511450381679,0.17557251908396945
1.4130615234375001,0.4685256958007813,-0.34338592529296874,-0.6335877862595419,0.0,-0.04580152671755725
1.6468753051757814,0.46493316650390626,-0.02963836669921875,-0.4809160305343511,-0.007633587786259542,0.07633587786259542
1.2582833862304688,0.4436773681640625,-0.135318603515625,-0.19083969465648853,0.030534351145038167,0.0
1.4720388793945314,0.6403683471679688,-0.20357666015625,-0.07633587786259542,-0.030534351145038167,-0.015267175572519083
1.370849304199219,0.667012939453125,-0.32063323974609376,-0.030534351145038167,0.0,0.007633587786259542
1.2409194946289064,0.5792953491210938,-0.4505630493164063,0.13740458015267176,0.030534351145038167,-0.015267175572519083
1.2798385620117188,0.62031005859375,-0.5287005615234375,0.022900763358778626,-0.022900763358778626,-0.007633587786259542
1.229543151855469,0.536484375,-0.5215155029296875,0.022900763358778626,0.0,-0.015267175572519083
1.2597802734375,0.47690826416015625,-0.5541476440429688,0.022900763358778626,-0.015267175572519083,-0.015267175572519083
1.2064910888671876,0.43260040283203127,-0.5574407958984375,0.03816793893129771,-0.007633587786259542,-0.015267175572519083
1.2097842407226562,0.3415896606445313,-0.5993536376953126,0.05343511450381679,0.0,0.0
1.1645782470703125,0.355660400390625,-0.6316864013671876,-0.015267175572519083,-0.007633587786259542,0.0
1.1621832275390627,0.24698638916015625,-0.6116281127929688,-0.007633587786259542,0.0,-0.007633587786259542
1.0556048583984377,0.2903961181640625,-0.661025390625,-0.007633587786259542,-0.022900763358778626,-0.015267175572519083
0.9122030639648437,0.6804849243164063,-0.6774911499023438,-0.2900763358778626,-0.24427480916030533,0.007633587786259542
0.8568182373046875,0.9445358276367188,-0.6855743408203125,-0.7557251908396946,-0.5572519083969465,0.183206106870229
-0.37601806640625,0.6092330932617188,0.11017089843750001,-0.6793893129770993,-0.9694656488549618,-0.06870229007633588
-1.0582992553710937,0.6664141845703125,0.27931915283203124,-0.06870229007633588,-1.1374045801526718,-0.12213740458015267
-1.12805419921875,0.7945477294921875,0.355660400390625,0.11450381679389313,-1.4351145038167938,-0.16793893129770993
-0.5996530151367188,0.6607260131835938,0.6283932495117188,-0.22900763358778625,-1.4045801526717556,-0.15267175572519084
0.029937744140625,0.6457571411132813,0.9328601074218751,0.4427480916030534,-0.916030534351145,0.030534351145038167
0.2505789184570313,0.6424639892578126,1.08973388671875,0.282442748091603,-0.648854961832061,0.15267175572519084
0.44756927490234377,0.8888516235351563,0.8074209594726562,-0.19083969465648853,-0.13740458015267176,0.24427480916030533
1.0283615112304687,0.5071453857421875,0.705333251953125,0.37404580152671757,1.2519083969465647,0.366412213740458
1.4328204345703126,0.5221142578125,0.5212161254882812,0.16030534351145037,1.9694656488549618,0.4580152671755725
0.4559518432617188,-0.24548950195312502,2.010319519042969,0.05343511450381679,0.8473282442748091,-0.05343511450381679
0.7065307617187501,-0.247884521484375,0.6029461669921875,0.6717557251908397,0.5725190839694656,0.015267175572519083
0.6655160522460938,1.1681707763671876,-0.13262420654296875,0.15267175572519084,-0.015267175572519083,-0.07633587786259542
1.4762301635742188,-1.3498928833007813,-0.5918692016601563,1.6870229007633588,0.15267175572519084,-0.04580152671755725
1.457369384765625,-1.9193087768554689,-0.0640667724609375,1.4198473282442747,0.06870229007633588,-0.17557251908396945
1.4187496948242189,-2.3153851318359377,0.6517446899414063,1.381679389312977,-0.16793893129770993,-0.33587786259541985
-0.0676593017578125,-0.9005273437500001,1.8573376464843752,1.1221374045801527,-0.8473282442748091,-0.183206106870229
-0.3769161987304688,-0.8813671875000001,1.5864010620117188,0.42748091603053434,-1.8473282442748091,-0.3053435114503817
1.1582913208007812,-0.045505371093750004,-0.8684939575195313,-0.29770992366412213,-1.2290076335877862,-0.45038167938931295
1.4756314086914064,-0.011675720214843751,-0.5673202514648438,0.41221374045801523,-0.7480916030534351,-0.1450381679389313
1.5774197387695312,-0.259859619140625,0.047601013183593756,0.25190839694656486,-0.4427480916030534,-0.07633587786259542
1.2912149047851562,-0.03203338623046875,-0.08173004150390625,-0.022900763358778626,-0.2900763358778626,0.0916030534351145
1.7408798217773438,-0.5909710693359376,-0.2077679443359375,0.06870229007633588,1.0610687022900762,0.29770992366412213
1.8306930541992188,-0.5730084228515625,0.3209326171875,-0.2900763358778626,1.9236641221374045,0.282442748091603
0.8134085083007813,-0.9014254760742187,1.2603790283203125,-0.6412213740458015,1.4427480916030533,0.33587786259541985
1.3909075927734376,0.21016296386718752,1.0900332641601562,-0.7251908396946565,0.3969465648854962,0.5038167938931297
1.2576846313476564,0.006286926269531251,0.24548950195312502,-0.6870229007633587,-0.1297709923664122,0.33587786259541985
0.9888436889648438,0.39667510986328125,-0.729283447265625,0.007633587786259542,-0.03816793893129771,0.29770992366412213
1.4549743652343752,0.379610595703125,-0.47601013183593754,-0.9770992366412213,-0.15267175572519084,0.061068702290076333
1.4247372436523438,0.7714956665039063,-0.015867004394531252,-0.7175572519083969,0.08396946564885496,-0.015267175572519083
1.1421249389648438,0.9487271118164063,0.16974700927734376,-0.10687022900763359,0.2595419847328244,0.13740458015267176
1.4666500854492188,0.9621990966796875,0.1490899658203125,-0.030534351145038167,-0.022900763358778626,0.07633587786259542
1.1499087524414062,0.9104067993164063,-0.21585113525390626,-0.282442748091603,-0.07633587786259542,0.007633587786259542
1.4843133544921876,0.8355624389648438,-0.143701171875,-0.015267175572519083,0.007633587786259542,0.022900763358778626
1.2229568481445312,0.9924362182617188,-0.21315673828125,0.16030534351145037,0.030534351145038167,-0.015267175572519083
1.3546829223632812,0.8858578491210938,-0.338895263671875,0.1450381679389313,0.015267175572519083,-0.015267175572519083
1.2789404296875,0.8247848510742188,-0.5254074096679687,0.06870229007633588,0.022900763358778626,-0.022900763358778626
1.3094769287109376,0.7777825927734375,-0.484991455078125,0.11450381679389313,0.007633587786259542,-0.015267175572519083
1.2816348266601563,0.6843768310546875,-0.5727090454101563,-0.06870229007633588,-0.022900763358778626,-0.022900763358778626
1.2804373168945313,0.5840853881835938,-0.5098397827148438,0.061068702290076333,-0.022900763358778626,-0.030534351145038167
1.277742919921875,0.63468017578125,-0.6520440673828125,0.0,-0.030534351145038167,-0.04580152671755725
1.155596923828125,0.5544470214843751,-0.5484594726562501,-0.030534351145038167,0.03816793893129771,-0.007633587786259542
1.2600796508789063,0.46074188232421875,-0.590372314453125,0.10687022900763359,0.04580152671755725,0.015267175572519083
1.2388238525390625,0.55564453125,-0.7930508422851563,-0.20610687022900762,0.022900763358778626,0.015267175572519083
0.7625143432617187,0.79754150390625,-0.7295828247070313,-0.2595419847328244,-0.13740458015267176,0.007633587786259542
0.820294189453125,1.3582754516601563,-1.2235556030273438,-0.6335877862595419,-0.3511450381679389,-0.022900763358778626
1.3430072021484376,0.79754150390625,-0.7256909179687501,-0.564885496183206,-0.6259541984732824,-0.09923664122137404
1.3729449462890626,0.39966888427734376,0.4071533203125,-0.23664122137404578,-0.8091603053435115,-0.282442748091603
-1.2124786376953125,0.7705975341796876,0.4305047607421875,0.16793893129770993,-0.916030534351145,-0.1297709923664122
-1.06099365234375,0.760418701171875,0.6592291259765626,0.366412213740458,-1.3358778625954197,-0.2900763358778626
-0.9343569946289063,0.47720764160156254,0.86939208984375,0.022900763358778626,-1.5038167938931297,-0.20610687022900762
-0.48948211669921876,0.6143225097656251,0.7550299072265625,-0.007633587786259542,-1.3053435114503815,-0.09923664122137404
0.3242257690429688,0.5385800170898438,0.8032296752929687,0.12213740458015267,-0.549618320610687,0.015267175572519083
0.08652008056640625,0.536484375,0.89334228515625,-0.16793893129770993,-0.25190839694656486,0.24427480916030533
0.504151611328125,0.06975494384765625,0.5547463989257813,-0.015267175572519083,1.5190839694656488,0.732824427480916
0.8175997924804688,-0.23201751708984375,2.116897888183594,-0.33587786259541985,2.068702290076336,1.1755725190839694
1.0439291381835938,-0.08891510009765625,2.058519287109375,0.4961832061068702,0.6946564885496183,0.4427480916030534
1.1050021362304687,-0.29907806396484377,0.03382965087890625,1.1221374045801527,0.5343511450381679,0.38167938931297707
1.0080038452148439,0.5122348022460937,-0.6559359741210938,0.7175572519083969,0.20610687022900762,0.0916030534351145
1.1717633056640626,-0.48648834228515625,-0.48409332275390626,0.9541984732824427,0.23664122137404578,-0.06870229007633588
1.2451107788085938,-1.4495855712890626,-0.26794281005859377,1.4809160305343512,0.2595419847328244,-0.05343511450381679
1.5019766235351564,-1.9214044189453126,-0.2149530029296875,1.1221374045801527,-0.08396946564885496,-0.3053435114503817
1.0337503051757813,-2.678230590820313,-0.03113525390625,1.9541984732824427,-0.3129770992366412,-0.5038167938931297
-0.011675720214843751,-1.65974853515625,0.5415737915039063,0.8091603053435115,-1.099236641221374,-0.5954198473282443
0.4912783813476563,-0.0053887939453125,0.0796343994140625,-0.33587786259541985,-1.5114503816793892,-0.7938931297709924
1.1394305419921875,-0.5134323120117188,0.0916094970703125,0.6641221374045801,-1.1908396946564885,-0.5419847328244275
1.3289364624023439,-0.00239501953125,-0.058677978515625,0.022900763358778626,-1.0,-0.16030534351145037
1.43701171875,-0.2912942504882813,-0.3251239013671875,0.1297709923664122,-0.7099236641221374,-0.1984732824427481
0.6975494384765626,-0.006885681152343751,-0.7128176879882813,0.07633587786259542,-0.40458015267175573,0.04580152671755725
1.1651770019531251,-0.4194277954101563,-1.1061996459960939,-0.022900763358778626,1.198473282442748,0.3893129770992366
1.3995895385742188,-1.208287353515625,0.7340734863281251,-0.5038167938931297,2.1297709923664123,1.0229007633587786
0.7262896728515625,-1.2481045532226562,1.7528549194335938,-0.9923664122137404,1.3282442748091603,0.7099236641221374
1.2615765380859376,-0.23590942382812502,1.3190570068359375,-0.8015267175572519,0.7251908396946565,0.6259541984732824
1.5202386474609375,-0.3400927734375,0.4900808715820313,-0.366412213740458,0.11450381679389313,0.38167938931297707
1.0020162963867187,0.6556365966796875,-0.5625302124023438,-0.5877862595419847,0.06870229007633588,0.37404580152671757
1.6813037109375002,-0.03263214111328125,-0.202379150390625,-0.5038167938931297,0.015267175572519083,0.1297709923664122
1.500479736328125,0.9454339599609376,0.13322296142578124,-0.24427480916030533,0.0,0.06870229007633588
1.5298187255859377,0.683778076171875,-0.49337402343750003,-0.05343511450381679,0.04580152671755725,-0.015267175572519083
1.251098327636719,0.6673123168945313,-0.142503662109375,-0.2213740458015267,-0.04580152671755725,-0.06870229007633588
1.4208453369140626,0.561632080078125,-0.23052062988281252,-0.16030534351145037,-0.08396946564885496,-0.07633587786259542
1.2484039306640626,0.5454656982421875,-0.37931121826171876,0.19083969465648853,0.007633587786259542,-0.022900763358778626
1.2319381713867188,0.5547463989257813,-0.46523254394531255,0.07633587786259542,0.0,-0.007633587786259542
1.2457095336914064,0.4233197021484375,-0.5203179931640626,0.09923664122137404,0.007633587786259542,-0.015267175572519083
1.204395446777344,0.4577481079101563,-0.5460644531250001,0.04580152671755725,-0.015267175572519083,-0.030534351145038167
1.1987072753906252,0.4532574462890625,-0.5945635986328125,0.007633587786259542,-0.007633587786259542,-0.015267175572519083
1.2031979370117187,0.3359014892578125,-0.5619314575195313,0.007633587786259542,0.007633587786259542,-0.015267175572519083
1.1642788696289064,0.3415896606445313,-0.5721102905273437,-0.022900763358778626,0.0,-0.007633587786259542
1.1582913208007812,0.27393035888671874,-0.5816903686523438,-0.007633587786259542,-0.022900763358778626,-0.015267175572519083
1.1448193359375,0.2652484130859375,-0.6251000976562501,-0.03816793893129771,-0.015267175572519083,-0.022900763358778626
1.093027038574219,0.27273284912109375,-0.6652166748046875,0.03816793893129771,-0.007633587786259542,-0.015267175572519083
1.0582992553710937,0.26315277099609374,-0.7424560546875001,-0.030534351145038167,-0.007633587786259542,-0.015267175572519083
1.1436218261718751,0.3305126953125,-0.8217910766601563,-0.08396946564885496,0.007633587786259542,0.007633587786259542
0.475411376953125,0.24459136962890626,-0.8286767578125,-0.19083969465648853,-0.29770992366412213,0.06870229007633588
0.36853363037109377,0.7640112304687501,-0.8451425170898438,-0.8091603053435115,-0.7480916030534351,-0.030534351145038167
-1.2672647094726563,0.0431103515625,0.9981243896484375,-0.061068702290076333,-1.4427480916030533,-0.13740458015267176
-1.8324893188476563,0.8954379272460938,0.3541635131835938,-0.4580152671755725,-1.83206106870229,-0.22900763358778625
-0.9816586303710938,0.4942721557617188,0.37511993408203126,-0.04580152671755725,-1.4961832061068703,-0.2900763358778626
-0.18441650390625,0.6424639892578126,0.8256829833984375,0.4427480916030534,-1.282442748091603,-0.0916030534351145
0.3448828125,0.5643264770507813,0.8478369140625001,0.24427480916030533,-0.48854961832061067,0.10687022900763359
0.3469784545898438,0.9433383178710938,0.6400689697265626,0.13740458015267176,0.061068702290076333,0.16793893129770993
0.4870870971679688,0.5706134033203125,0.5110372924804688,0.07633587786259542,0.8091603053435115,0.3511450381679389
0.88855224609375,-0.288599853515625,1.1178753662109375,-0.29770992366412213,1.83206106870229,0.5343511450381679
1.2451107788085938,-0.01466949462890625,1.6759149169921876,-0.09923664122137404,2.015267175572519,0.6106870229007634
1.1921209716796877,-0.01107696533203125,1.875000915527344,-0.04580152671755725,1.1755725190839694,0.20610687022900762
0.8409512329101563,-0.17693206787109375,-0.1143621826171875,0.9770992366412213,0.7480916030534351,0.030534351145038167
0.6822811889648438,-0.8430468750000001,-0.28919860839843753,1.1221374045801527,0.22900763358778625,0.007633587786259542
1.5465838623046875,-1.0579998779296875,-0.641865234375,0.916030534351145,0.1984732824427481,-0.07633587786259542
1.5154486083984375,-1.9450552368164062,-0.12903167724609377,1.5190839694656488,0.21374045801526717,-0.23664122137404578
1.2205618286132813,-1.921703796386719,0.7259902954101562,1.2290076335877862,-0.2213740458015267,-0.3511450381679389
0.24638763427734375,-1.0738668823242188,1.2403207397460938,0.7099236641221374,-1.083969465648855,-0.5038167938931297
0.1754351806640625,-0.6421646118164063,0.9681866455078125,-0.11450381679389313,-1.5954198473282442,-0.6793893129770993
0.923280029296875,-0.6930587768554688,0.26435028076171874,0.06870229007633588,-1.4732824427480915,-0.5267175572519084
0.91250244140625,-0.47601013183593754,0.5206173706054688,0.41221374045801523,-1.3282442748091603,-0.366412213740458
