accel.x,accel.y,accel.z,gyro.x,gyro.y,gyro.z
0.8903485107421876,-0.384400634765625,-0.10627899169921876,0.05343511450381679,0.007633587786259542,0.015267175572519083
0.8903485107421876,-0.384400634765625,-0.10627899169921876,0.05343511450381679,0.007633587786259542,0.015267175572519083
1.031055908203125,-1.3235476684570313,-0.3266207885742188,-0.03816793893129771,-0.007633587786259542,-0.007633587786259542
1.02267333984375,-1.251098327636719,-0.415535888671875,-0.1984732824427481,-0.061068702290076333,-0.030534351145038167
1.0454260253906251,-1.2268487548828126,-0.4846920776367188,-0.2595419847328244,0.0,-0.12213740458015267
1.0103988647460938,-0.8532257080078125,-0.5095404052734376,0.0916030534351145,0.015267175572519083,0.030534351145038167
0.9086105346679688,-1.0065069580078125,-0.5346881103515625,0.10687022900763359,-0.03816793893129771,0.061068702290076333
0.8113128662109376,-0.961600341796875,-0.49337402343750003,0.40458015267175573,-0.015267175572519083,0.0916030534351145
0.5763015747070312,-0.8888516235351563,-0.664617919921875,0.20610687022900762,-0.06870229007633588,0.23664122137404578
0.523311767578125,-1.0154882812500001,-0.3023712158203125,-0.2748091603053435,-0.030534351145038167,-0.007633587786259542
0.7134164428710937,-0.7409591674804688,-0.4559518432617188,0.13740458015267176,0.06870229007633588,0.030534351145038167
0.7403604125976563,-0.3769161987304688,-0.4900808715820313,-0.1297709923664122,0.061068702290076333,0.05343511450381679
0.7047344970703125,-0.45984375,-0.6026467895507813,-0.40458015267175573,-0.022900763358778626,0.022900763358778626
0.396375732421875,-0.74964111328125,-0.28919860839843753,-0.22900763358778625,0.0,-0.183206106870229
0.5882766723632813,-0.16016693115234376,-0.659827880859375,0.3893129770992366,0.07633587786259542,0.07633587786259542
0.49576904296875,-0.2775228881835938,-0.6277944946289062,-0.06870229007633588,0.022900763358778626,-0.030534351145038167
0.5924679565429688,-0.39248382568359375,-0.7625143432617187,-0.04580152671755725,0.0,-0.007633587786259542
0.43739044189453125,-0.3879931640625,-0.5583389282226563,0.15267175572519084,-0.015267175572519083,0.030534351145038167
0.42960662841796876,-0.32721954345703125,-0.6397695922851563,0.06870229007633588,-0.0916030534351145,0.030534351145038167
0.3131488037109375,-0.3487747192382813,-0.6017486572265626,-0.061068702290076333,-0.08396946564885496,-0.015267175572519083
0.3155438232421875,-0.3511697387695313,-0.6328839111328125,-0.03816793893129771,0.0,0.007633587786259542
0.32183074951171875,-0.2613565063476563,-0.5795947265625,0.015267175572519083,0.03816793893129771,-0.022900763358778626
0.3170407104492188,-0.23620880126953125,-0.619112548828125,-0.03816793893129771,0.015267175572519083,0.007633587786259542
0.33021331787109376,-0.31853759765625,-0.6224057006835938,0.022900763358778626,0.015267175572519083,-0.007633587786259542
0.2844085693359375,-0.33410522460937503,-0.5969586181640625,0.08396946564885496,0.0,-0.007633587786259542
0.290994873046875,-0.24908203125,-0.6583309936523438,0.015267175572519083,0.0,-0.015267175572519083
0.26884094238281253,-0.3335064697265625,-0.6280938720703125,0.0,0.0,-0.007633587786259542
0.26794281005859377,-0.2197430419921875,-0.6565347290039063,-0.03816793893129771,0.015267175572519083,0.0
0.277822265625,-0.22153930664062502,-0.6727011108398437,-0.04580152671755725,0.015267175572519083,-0.015267175572519083
0.24698638916015625,-0.16585510253906252,-0.6550378417968751,-0.08396946564885496,0.015267175572519083,-0.015267175572519083
0.24040008544921876,-0.14130615234375002,-0.6544390869140625,-0.04580152671755725,-0.007633587786259542,0.0
0.24489074707031253,-0.13412109375,-0.6655160522460938,0.015267175572519083,-0.007633587786259542,0.0
0.23231689453125,-0.07394622802734375,-0.6762936401367188,0.0,0.007633587786259542,0.007633587786259542
0.23111938476562502,-0.08322692871093751,-0.69695068359375,-0.007633587786259542,0.007633587786259542,-0.007633587786259542
0.22662872314453125,-0.082628173828125,-0.70174072265625,0.0,0.0,0.0
0.21016296386718752,-0.0868194580078125,-0.6996450805664063,0.015267175572519083,0.0,-0.007633587786259542
0.18681152343750002,-0.0628692626953125,-0.6918612670898437,-0.007633587786259542,-0.015267175572519083,-0.007633587786259542
0.19070343017578126,-0.07394622802734375,-0.6918612670898437,-0.007633587786259542,-0.007633587786259542,0.0
0.17393829345703127,-0.07304809570312501,-0.7068301391601562,0.007633587786259542,-0.007633587786259542,0.0
0.18142272949218752,-0.02185455322265625,-0.756826171875,-0.03816793893129771,0.007633587786259542,-0.022900763358778626
0.2293231201171875,0.20088226318359376,-0.7858657836914062,-0.08396946564885496,0.022900763358778626,-0.030534351145038167
0.2796185302734375,0.49636779785156254,-0.85023193359375,-0.4580152671755725,-0.007633587786259542,-0.17557251908396945
0.16016693115234376,1.144519958496094,-0.6517446899414063,-0.9007633587786259,-0.015267175572519083,-0.3893129770992366
-0.35296600341796874,1.6851956176757814,-0.9996212768554688,-0.8473282442748091,-0.3282442748091603,-0.32061068702290074
-1.3310321044921876,2.7967840576171876,-1.5810122680664063,-1.7786259541984732,-0.3511450381679389,-0.4198473282442748
-2.77822265625,2.8404931640625,2.35909423828125,-0.41221374045801523,-0.061068702290076333,0.5038167938931297
-2.7701394653320315,0.9148974609375,0.4397854614257813,0.732824427480916,-0.7862595419847328,2.0
-0.8104147338867188,-0.2424957275390625,-0.24519012451171876,0.3129770992366412,-0.33587786259541985,2.4198473282442747
-0.3335064697265625,-1.0651849365234376,0.20806732177734377,0.5725190839694656,0.40458015267175573,2.916030534351145
-0.00209564208984375,-1.8160235595703127,0.15956817626953126,-0.8015267175572519,0.4580152671755725,2.4198473282442747
0.7170089721679688,-3.19735107421875,-0.12783416748046875,-0.2595419847328244,-0.007633587786259542,1.7938931297709924
0.83586181640625,-2.921025695800781,-0.06945556640625,0.26717557251908397,0.183206106870229,1.5038167938931297
1.610650634765625,-4.234993286132813,0.602347412109375,1.3282442748091603,0.3893129770992366,0.030534351145038167
2.4168740844726564,-4.234095153808594,0.9163943481445312,2.030534351145038,0.6717557251908397,-0.5725190839694656
2.1618045043945315,-3.9439984130859376,2.82372802734375,0.9923664122137404,-0.564885496183206,-0.7633587786259541
2.498604125976563,-3.4721795654296876,1.6025674438476563,0.648854961832061,-0.4961832061068702,-1.6717557251908397
2.8395950317382814,-2.3752606201171877,0.6179150390625,0.9236641221374046,-0.648854961832061,-2.351145038167939
0.9304650878906251,0.6667135620117188,1.1897259521484376,0.47328244274809156,0.6641221374045801,-2.9618320610687023
-0.795146484375,1.7369879150390626,1.5920892333984376,0.1297709923664122,0.5877862595419847,-2.2900763358778624
-0.25896148681640624,0.6963519287109375,-0.01526824951171875,3.1068702290076335,0.20610687022900762,-0.5114503816793893
-0.1035845947265625,0.48559020996093755,-1.3801300048828127,3.0381679389312977,0.6106870229007634,-0.7709923664122137
0.7792794799804688,0.28979736328125,-0.8714877319335937,1.7022900763358777,0.7786259541984732,-0.4809160305343511
1.9193087768554689,-0.1682501220703125,0.8223898315429687,0.7862595419847328,0.5954198473282443,-0.030534351145038167
1.6307089233398437,-0.3909869384765625,2.5503964233398437,0.648854961832061,-0.25190839694656486,0.5190839694656488
1.5612533569335938,-0.4888833618164063,1.8992504882812502,0.3282442748091603,0.12213740458015267,-0.061068702290076333
0.39038818359375,0.7601193237304688,1.6995657348632813,0.6946564885496183,0.061068702290076333,0.7099236641221374
-1.7762063598632813,-0.49756530761718754,2.0651055908203126,0.3511450381679389,0.07633587786259542,1.5038167938931297
-3.121309204101563,-1.2169692993164063,1.781595153808594,-0.16793893129770993,0.05343511450381679,2.2061068702290076
-4.808301086425781,-1.7453704833984376,1.3337265014648438,-0.16030534351145037,-0.41221374045801523,2.9618320610687023
-1.53041748046875,-0.4724176025390625,1.3762380981445312,-0.061068702290076333,-0.030534351145038167,2.687022900763359
1.025068359375,-1.0002200317382812,1.229842529296875,0.40458015267175573,0.46564885496183206,1.6793893129770991
2.552791442871094,-1.6313076782226563,1.7028588867187502,0.8015267175572519,0.20610687022900762,0.7251908396946565
2.6794281005859375,-2.8590545654296875,1.1561956787109375,2.0534351145038165,1.1221374045801527,-1.0763358778625953
3.1737002563476566,-1.1112890625,0.60114990234375,0.20610687022900762,-0.24427480916030533,-1.4885496183206106
2.9030630493164065,-0.8699908447265625,0.4532574462890625,0.6259541984732824,0.6183206106870229,-2.0381679389312977
2.6411077880859377,-0.2847079467773438,-0.0293389892578125,0.7099236641221374,1.282442748091603,-1.816793893129771
1.2217593383789063,0.43110351562500004,0.6589297485351563,-0.29770992366412213,2.0763358778625953,-1.5190839694656488
0.09849517822265626,0.4290078735351563,1.8863772583007814,-0.0916030534351145,0.9083969465648855,-0.5114503816793893
0.7217990112304687,-0.4358935546875,1.85614013671875,0.732824427480916,-0.3282442748091603,0.030534351145038167
0.76880126953125,-0.29069549560546876,1.328038330078125,0.5954198473282443,0.4961832061068702,-0.8931297709923663
1.2301419067382813,0.8041278076171875,1.7537530517578126,0.40458015267175573,0.6717557251908397,-0.1297709923664122
2.2683828735351566,0.2137554931640625,1.3427078247070314,-0.2595419847328244,0.1297709923664122,-0.08396946564885496
2.126477966308594,0.1778302001953125,1.0451266479492187,-0.2748091603053435,0.04580152671755725,0.06870229007633588
2.3079006958007815,-0.082628173828125,0.6038442993164063,-0.12213740458015267,-0.12213740458015267,-0.0916030534351145
2.048639831542969,0.22543121337890626,0.6912625122070313,0.3282442748091603,0.1450381679389313,0.08396946564885496
2.0219952392578127,0.31374755859375003,0.5754034423828125,0.030534351145038167,-0.022900763358778626,0.061068702290076333
1.991458740234375,0.37392242431640627,0.4236190795898438,-0.3511450381679389,-0.04580152671755725,-0.030534351145038167
1.9085311889648438,0.25806335449218754,0.5203179931640626,-0.061068702290076333,-0.015267175572519083,0.0
1.795067138671875,0.8361611938476563,0.32751892089843754,0.0,0.12213740458015267,0.03816793893129771
1.7208215332031251,1.686991882324219,0.28830047607421877,-1.0305343511450382,0.03816793893129771,-0.10687022900763359
1.4708413696289062,2.06690185546875,0.6206094360351563,-1.4198473282442747,-0.33587786259541985,-0.40458015267175573
1.082548828125,2.8740234375,0.10059082031250001,-0.7175572519083969,-0.04580152671755725,0.3129770992366412
0.017663269042968752,2.545606384277344,1.8570382690429688,0.46564885496183206,0.40458015267175573,0.8473282442748091
-1.5669415283203125,1.9088305664062502,1.4124627685546876,0.19083969465648853,-0.5267175572519084,1.5419847328244274
-1.580413513183594,0.2149530029296875,-0.09071136474609376,-0.4351145038167939,-0.5419847328244275,1.9770992366412212
-2.1031265258789062,-1.2064910888671876,-0.8328680419921876,-0.6793893129770993,-0.9618320610687022,2.5114503816793894
-2.4480093383789066,-1.9226019287109375,-0.8903485107421876,-0.16793893129770993,-0.24427480916030533,3.1908396946564883
-1.2789404296875,-1.9390676879882813,-0.25237518310546875,-1.015267175572519,-0.40458015267175573,2.1068702290076335
0.130528564453125,-1.5920892333984376,-0.34398468017578127,0.05343511450381679,-0.03816793893129771,1.748091603053435
2.4072940063476564,-4.1499700927734375,0.5146298217773437,1.66412213740458,0.7175572519083969,-0.13740458015267176
1.9929556274414064,-0.5966592407226563,1.9252963256835938,0.32061068702290074,-0.3893129770992366,0.022900763358778626
1.5438894653320314,-0.7786807250976563,1.7654287719726562,1.4885496183206106,-0.0916030534351145,0.183206106870229
1.00351318359375,-0.9214837646484375,2.1896466064453124,1.3053435114503815,-0.09923664122137404,0.2900763358778626
0.0568817138671875,0.017663269042968752,2.385140075683594,0.564885496183206,0.21374045801526717,0.6793893129770993
-2.446512451171875,-1.0268646240234376,1.804647216796875,0.09923664122137404,-0.42748091603053434,2.213740458015267
-4.481380920410157,-1.1337423706054688,1.4421011352539064,-0.09923664122137404,-0.37404580152671757,2.969465648854962
-3.1985485839843752,0.2377056884765625,1.2576846313476564,-0.6106870229007634,-0.5801526717557252,2.946564885496183
1.3115725708007813,-1.1505075073242188,1.3900094604492188,0.6030534351145038,0.007633587786259542,1.5954198473282442
2.398911437988281,-1.8642233276367188,1.1681707763671876,1.9083969465648853,0.8625954198473282,0.1984732824427481
3.050955505371094,-2.626138916015625,1.9001486206054687,1.083969465648855,0.8091603053435115,-0.9236641221374046
2.1908441162109376,-1.6983682250976564,1.558858337402344,0.9312977099236641,0.007633587786259542,-1.3893129770992365
2.867736511230469,-0.7056326293945313,0.08711883544921875,0.6335877862595419,0.3511450381679389,-2.0
2.352208557128906,-0.2796185302734375,0.22692810058593751,0.564885496183206,0.8473282442748091,-2.1221374045801524
0.9265731811523438,0.5559439086914063,1.550475769042969,-0.061068702290076333,1.8015267175572518,-0.6717557251908397
0.6053411865234375,-0.24040008544921876,2.5009991455078127,0.6412213740458015,-0.7175572519083969,0.16793893129770993
1.5768209838867189,-0.6685098266601562,0.7110214233398438,-0.2595419847328244,0.6717557251908397,-0.8015267175572519
0.7978408813476563,0.00718505859375,1.6175363159179688,0.5343511450381679,1.2671755725190839,-0.6641221374045801
2.019600219726563,0.3718267822265625,1.6130456542968752,-0.15267175572519084,0.19083969465648853,0.03816793893129771
2.0166064453125,-0.03442840576171875,0.5077441406250001,-0.32061068702290074,-0.1450381679389313,0.04580152671755725
2.1656964111328127,-0.11466156005859375,0.6822811889648438,0.16030534351145037,0.007633587786259542,-0.022900763358778626
1.9917581176757813,0.30386810302734374,0.6589297485351563,0.1297709923664122,0.0916030534351145,0.09923664122137404
2.0549267578125,0.113763427734375,0.3658392333984375,-0.0916030534351145,0.015267175572519083,-0.030534351145038167
2.0088226318359377,0.124541015625,0.42391845703125003,0.06870229007633588,0.0,0.022900763358778626
1.9462527465820314,0.13651611328125002,0.22962249755859376,0.0,0.015267175572519083,-0.015267175572519083
1.8543438720703127,0.13382171630859377,0.057779846191406255,-0.022900763358778626,0.0,-0.030534351145038167
1.6543597412109377,0.49876281738281253,-0.12903167724609377,-0.1984732824427481,0.0,-0.2213740458015267
1.1070977783203126,2.7973828125,-0.4343966674804688,-1.4122137404580153,-0.549618320610687,-0.03816793893129771
0.6325845336914063,3.1868728637695316,-0.6319857788085937,-1.083969465648855,-0.26717557251908397,0.5343511450381679
-0.7158114624023438,2.7809170532226566,0.5376818847656251,0.0,0.19083969465648853,1.2442748091603053
-2.2851480102539066,1.4459930419921876,1.313668212890625,0.7022900763358778,-0.6183206106870229,2.259541984732824
-2.2809567260742187,-0.39128631591796875,0.36254608154296875,0.34351145038167935,0.21374045801526717,2.5038167938931295
-1.2975018310546875,-1.18074462890625,0.31853759765625,-0.5725190839694656,0.15267175572519084,2.480916030534351
-1.5064672851562502,-0.8786727905273438,-0.2424957275390625,-0.42748091603053434,0.47328244274809156,3.114503816793893
-0.18531463623046876,-1.9474502563476563,0.40625518798828125,0.7099236641221374,0.1297709923664122,1.2366412213740459
2.0516336059570315,-4.612208862304688,0.9331594848632813,1.6106870229007633,0.9541984732824427,-0.9389312977099237
3.3356634521484376,-3.5269656372070313,1.0020162963867187,1.045801526717557,-0.16030534351145037,-1.2366412213740459
2.38304443359375,-1.7513580322265625,1.259480895996094,0.6946564885496183,0.2748091603053435,-2.6564885496183206
1.7330960083007814,-0.5822891235351563,0.6484515380859376,0.8396946564885496,1.2519083969465647,-2.564885496183206
0.26494903564453126,0.544866943359375,1.265767822265625,0.9541984732824427,1.4427480916030533,-1.6030534351145038
-0.12663665771484375,0.6762936401367188,1.4424005126953126,0.9923664122137404,0.8015267175572519,-0.9618320610687022
0.05119354248046875,1.0160870361328125,0.13442047119140627,1.7251908396946565,0.20610687022900762,-0.6412213740458015
0.7550299072265625,1.0328521728515625,-1.0544073486328125,2.618320610687023,0.8244274809160305,-0.10687022900763359
1.7920733642578126,0.41882904052734377,-0.35625915527343754,2.114503816793893,0.5114503816793893,0.4198473282442748
2.109114074707031,-0.22183868408203125,0.8451425170898438,1.0229007633587786,0.23664122137404578,0.07633587786259542
1.8372793579101563,0.0568817138671875,2.265389099121094,1.1374045801526718,0.04580152671755725,0.2748091603053435
2.1219873046875,-0.5715115356445313,1.3642630004882814,-0.15267175572519084,0.22900763358778625,0.16030534351145037
1.7417779541015626,-0.15477813720703126,2.365081787109375,0.5877862595419847,0.0916030534351145,-0.09923664122137404
-0.07634124755859376,1.1118878173828126,2.45489501953125,1.3206106870229006,-0.16793893129770993,1.297709923664122
-2.072889404296875,0.7262896728515625,2.542013854980469,0.6335877862595419,-0.1450381679389313,1.66412213740458
-3.219804382324219,-0.7131170654296876,2.101629638671875,0.22900763358778625,0.030534351145038167,2.0839694656488548
-4.33738037109375,-0.9247769165039063,1.9678079223632814,0.08396946564885496,0.5267175572519084,2.717557251908397
-3.096460876464844,-0.5355862426757813,1.385518798828125,-0.4809160305343511,-0.0916030534351145,2.4427480916030535
-0.28770172119140625,-0.8942404174804688,1.2005035400390625,-0.13740458015267176,0.10687022900763359,1.9465648854961832
1.636995849609375,-1.1035052490234376,1.7675244140625002,0.47328244274809156,0.030534351145038167,1.3587786259541985
2.8931835937500003,-2.159110107421875,1.8908679199218752,1.4961832061068703,0.3893129770992366,0.46564885496183206
2.3752606201171877,-2.720442810058594,1.1283535766601562,2.0610687022900764,0.9618320610687022,-0.7480916030534351
2.21539306640625,-2.1342617797851564,0.8945397949218751,1.0305343511450382,-0.19083969465648853,-1.465648854961832
3.097359008789063,-1.1852352905273438,-0.39667510986328125,1.0763358778625953,0.41221374045801523,-1.7633587786259541
2.2752685546875,-0.4996609497070313,-0.16495697021484376,0.46564885496183206,1.2595419847328244,-2.465648854961832
1.0307565307617188,0.3311114501953125,-0.0101788330078125,-0.8015267175572519,2.1068702290076335,-2.1526717557251906
0.28231292724609375,0.5661227416992187,1.7792001342773438,-0.183206106870229,0.9694656488549618,-0.3969465648854962
0.47601013183593754,-1.0190808105468752,1.6414865112304688,1.3206106870229006,-0.061068702290076333,0.03816793893129771
0.2966830444335938,0.46193939208984375,1.23822509765625,0.3969465648854962,0.7862595419847328,-0.564885496183206
1.8172210693359376,0.3104544067382813,2.428250427246094,-0.12213740458015267,0.5114503816793893,0.0
2.039059753417969,0.1598675537109375,1.5319143676757814,0.061068702290076333,-0.09923664122137404,0.0
2.442620544433594,0.13112731933593752,0.7780819702148438,-0.25190839694656486,-0.007633587786259542,0.0
2.229463806152344,0.0688568115234375,1.0541079711914063,-0.007633587786259542,0.03816793893129771,-0.022900763358778626
2.0722906494140627,0.27033782958984376,0.7792794799804688,-0.03816793893129771,-0.007633587786259542,0.0
2.069596252441406,0.3119512939453125,0.7882608032226562,-0.022900763358778626,-0.015267175572519083,0.007633587786259542
2.040556640625,0.31883697509765624,0.5810916137695313,-0.03816793893129771,0.0,-0.03816793893129771
1.795067138671875,0.6316864013671876,0.549656982421875,-0.26717557251908397,-0.06870229007633588,-0.1297709923664122
0.9690847778320313,2.975512390136719,0.9598040771484375,-1.213740458015267,-0.5190839694656488,-0.04580152671755725
1.0316546630859376,2.7485842895507813,-0.18202148437500001,-0.8625954198473282,-0.22900763358778625,0.648854961832061
0.27842102050781253,2.1704864501953125,1.1002120971679688,0.12213740458015267,0.5190839694656488,1.114503816793893
-1.3945001220703126,1.469045104980469,1.1753558349609377,0.3053435114503817,-0.916030534351145,1.9083969465648853
-1.9845730590820314,0.264649658203125,0.7813751220703126,-0.03816793893129771,-0.5343511450381679,2.2442748091603053
-1.6750167846679689,-0.39787261962890624,1.2085867309570313,0.6030534351145038,-0.7480916030534351,2.450381679389313
-1.9818786621093751,-0.3200344848632813,0.5774990844726563,0.29770992366412213,0.5801526717557252,2.3893129770992365
-2.6491909790039063,-0.8056246948242188,0.2544708251953125,-0.6793893129770993,0.2748091603053435,2.49618320610687
-1.2555889892578125,-2.4495062255859374,0.4667294311523438,0.6412213740458015,0.25190839694656486,2.16793893129771
0.8038284301757813,-2.985391845703125,0.844244384765625,0.2213740458015267,0.25190839694656486,0.7022900763358778
2.6009912109375,-4.002377014160157,0.5029541015625,1.015267175572519,0.9770992366412213,-1.2061068702290076
2.176773376464844,-3.1524444580078126,1.141226806640625,0.9923664122137404,-0.19083969465648853,-1.7404580152671756
2.42136474609375,-1.3555810546875,-0.6370751953125,0.9541984732824427,0.23664122137404578,-2.3435114503816794
1.41066650390625,-0.7900570678710938,-0.3784130859375,0.7557251908396946,1.083969465648855,-2.7404580152671754
-0.21225860595703125,0.6849755859375001,1.1738589477539063,0.2748091603053435,1.4274809160305344,-2.0763358778625953
-0.7673043823242188,0.76880126953125,1.2100836181640626,1.0610687022900762,1.0610687022900762,-1.1908396946564885
-0.39847137451171877,0.652642822265625,0.415535888671875,2.6259541984732824,0.2595419847328244,-0.5801526717557252
1.465751953125,-0.032931518554687504,0.03682342529296875,2.748091603053435,0.16793893129770993,0.2748091603053435
1.465751953125,-0.032931518554687504,0.03682342529296875,2.748091603053435,0.16793893129770993,0.2748091603053435
2.1647982788085938,-0.8436456298828126,1.2256512451171875,0.183206106870229,0.6717557251908397,-0.564885496183206
2.1647982788085938,-0.8436456298828126,1.2256512451171875,0.183206106870229,0.6717557251908397,-0.564885496183206
2.1647982788085938,-0.8436456298828126,1.2256512451171875,0.183206106870229,0.6717557251908397,-0.564885496183206
2.1647982788085938,-0.8436456298828126,1.2256512451171875,0.183206106870229,0.6717557251908397,-0.564885496183206
2.1647982788085938,-0.8436456298828126,1.2256512451171875,0.183206106870229,0.6717557251908397,-0.564885496183206
2.1647982788085938,-0.8436456298828126,1.2256512451171875,0.183206106870229,0.6717557251908397,-0.564885496183206
2.1647982788085938,-0.8436456298828126,1.2256512451171875,0.183206106870229,0.6717557251908397,-0.564885496183206
-3.021317138671875,-0.5984555053710938,1.7310003662109377,0.07633587786259542,0.07633587786259542,2.4122137404580153
-0.31255004882812504,-1.0894345092773439,1.586700439453125,0.22900763358778625,0.19083969465648853,1.9694656488549618
1.3250445556640627,-1.3382171630859376,2.049238586425781,0.7251908396946565,0.16793893129770993,0.9770992366412213
2.3366409301757813,-2.278561706542969,1.0005194091796876,2.099236641221374,0.8244274809160305,-0.16030534351145037
2.3366409301757813,-2.278561706542969,1.0005194091796876,2.099236641221374,0.8244274809160305,-0.16030534351145037
2.3366409301757813,-2.278561706542969,1.0005194091796876,2.099236641221374,0.8244274809160305,-0.16030534351145037
2.3366409301757813,-2.278561706542969,1.0005194091796876,2.099236641221374,0.8244274809160305,-0.16030534351145037
2.3366409301757813,-2.278561706542969,1.0005194091796876,2.099236641221374,0.8244274809160305,-0.16030534351145037
0.1981878662109375,-0.02065704345703125,2.388732604980469,0.13740458015267176,-0.04580152671755725,-0.6946564885496183
0.1981878662109375,-0.02065704345703125,2.388732604980469,0.13740458015267176,-0.04580152671755725,-0.6946564885496183
0.1981878662109375,-0.02065704345703125,2.388732604980469,0.13740458015267176,-0.04580152671755725,-0.6946564885496183
0.1981878662109375,-0.02065704345703125,2.388732604980469,0.13740458015267176,-0.04580152671755725,-0.6946564885496183
0.1981878662109375,-0.02065704345703125,2.388732604980469,0.13740458015267176,-0.04580152671755725,-0.6946564885496183
0.1981878662109375,-0.02065704345703125,2.388732604980469,0.13740458015267176,-0.04580152671755725,-0.6946564885496183
0.1981878662109375,-0.02065704345703125,2.388732604980469,0.13740458015267176,-0.04580152671755725,-0.6946564885496183
0.1981878662109375,-0.02065704345703125,2.388732604980469,0.13740458015267176,-0.04580152671755725,-0.6946564885496183
2.1139041137695314,0.07993377685546875,0.631087646484375,-0.015267175572519083,-0.007633587786259542,-0.030534351145038167
2.1139041137695314,0.07993377685546875,0.631087646484375,-0.015267175572519083,-0.007633587786259542,-0.030534351145038167
1.6660354614257813,1.5298187255859377,0.3993695068359375,-0.7099236641221374,-0.12213740458015267,-0.1450381679389313
1.603465576171875,2.1441412353515625,0.22632934570312502,-1.213740458015267,-0.366412213740458,0.10687022900763359
1.3825250244140626,2.5914111328125,-0.20537292480468752,-0.6641221374045801,-0.10687022900763359,0.5572519083969465
0.8098159790039063,2.085762634277344,0.9098080444335938,0.12213740458015267,0.47328244274809156,0.9770992366412213
0.8098159790039063,2.085762634277344,0.9098080444335938,0.12213740458015267,0.47328244274809156,0.9770992366412213
-1.3184582519531252,0.6409671020507813,-0.2041754150390625,-0.20610687022900762,0.6335877862595419,2.16030534351145
-2.6102719116210937,-0.5026547241210938,-0.140108642578125,-0.6946564885496183,0.549618320610687,2.564885496183206
-2.5039929199218753,-1.428629150390625,-0.020357666015625,-1.0763358778625953,0.11450381679389313,2.7022900763358777
-0.8948391723632813,-2.7159521484375,0.13980926513671876,0.22900763358778625,0.40458015267175573,1.8473282442748091
-0.8948391723632813,-2.7159521484375,0.13980926513671876,0.22900763358778625,0.40458015267175573,1.8473282442748091
2.604883117675781,-4.4194097900390625,1.3373190307617189,0.6946564885496183,0.4427480916030534,-1.114503816793893
2.3872357177734376,-3.050955505371094,0.8469387817382813,1.564885496183206,0.20610687022900762,-1.5419847328244274
2.843786315917969,-1.6783099365234375,-0.10987152099609375,1.4427480916030533,-0.06870229007633588,-1.7938931297709924
1.7839901733398438,-0.9505233764648438,0.4643344116210938,0.48854961832061067,0.3969465648854962,-2.687022900763359
0.060174865722656255,-0.1790277099609375,1.4292279052734376,-0.5114503816793893,1.083969465648855,-2.618320610687023
-0.33799713134765624,0.5020559692382813,2.001936950683594,1.6412213740458015,1.0381679389312977,-0.5419847328244275
-0.018860778808593753,0.07514373779296875,0.1580712890625,3.0229007633587783,0.007633587786259542,-0.35877862595419846
0.8352630615234375,0.69216064453125,-1.6435821533203125,2.2900763358778624,0.16030534351145037,-0.5725190839694656
1.910028076171875,-0.3703298950195313,-0.13621673583984376,2.32824427480916,0.5114503816793893,-0.04580152671755725
2.027384033203125,0.11226654052734375,0.9217831420898438,-0.183206106870229,-0.04580152671755725,-0.09923664122137404
2.113305358886719,-0.408350830078125,2.0124151611328127,-0.21374045801526717,0.11450381679389313,0.2900763358778626
2.3073019409179687,-0.9113049316406251,1.2912149047851562,0.5801526717557252,-0.0916030534351145,-0.12213740458015267
2.057022399902344,-0.00748443603515625,1.9199075317382814,0.7786259541984732,0.2213740458015267,-0.23664122137404578
-0.1191522216796875,2.2061123657226562,2.951562194824219,1.2442748091603053,-0.1450381679389313,1.0229007633587786
-2.3561004638671874,1.1121871948242188,2.455493774414063,0.5419847328244275,0.0,1.8778625954198473
-3.117716674804688,-1.3097763061523438,2.2252725219726566,0.7099236641221374,0.2900763358778626,2.068702290076336
-4.315226440429687,-0.6020480346679687,2.0010388183593752,-0.03816793893129771,0.46564885496183206,2.6564885496183206
-2.76145751953125,-0.12304412841796876,1.2930111694335937,-0.9007633587786259,-0.19083969465648853,2.4885496183206106
1.0112969970703125,-1.368753662109375,0.9630972290039063,-0.007633587786259542,-0.2900763358778626,1.198473282442748
2.3764581298828125,-1.2888198852539063,0.6843768310546875,0.8702290076335878,0.17557251908396945,0.4580152671755725
2.4902215576171876,-3.1895672607421877,0.7637118530273438,0.9770992366412213,0.22900763358778625,-1.3893129770992365
2.35909423828125,-0.5278024291992188,-0.9193881225585938,1.083969465648855,0.7022900763358778,-1.618320610687023
1.8995498657226564,0.018860778808593753,0.08652008056640625,-0.1984732824427481,1.5725190839694656,-2.114503816793893
0.4604425048828125,0.7194039916992188,2.548899536132813,0.3511450381679389,0.1450381679389313,-0.3893129770992366
-0.05179229736328125,-0.40116577148437504,2.203118591308594,-0.20610687022900762,1.0076335877862594,-1.16793893129771
1.7549505615234375,1.3145663452148437,1.9357745361328127,0.33587786259541985,0.6259541984732824,0.022900763358778626
2.0507354736328125,0.35057098388671876,1.0873388671875,0.15267175572519084,0.12213740458015267,0.16030534351145037
2.138453063964844,0.22094055175781252,1.1199710083007812,-0.1297709923664122,0.12213740458015267,-0.030534351145038167
2.1884490966796877,0.16435821533203127,1.0406359863281252,0.07633587786259542,-0.007633587786259542,0.0
2.063309326171875,0.36015106201171876,0.8831634521484375,-0.1450381679389313,-0.16793893129770993,-0.022900763358778626
2.0040325927734375,0.3023712158203125,0.7095245361328125,0.05343511450381679,-0.030534351145038167,0.0
1.849853210449219,0.47032196044921876,0.6544390869140625,-0.11450381679389313,-0.03816793893129771,-0.015267175572519083
1.5980767822265627,0.9867480468750001,0.9580078125,-0.4580152671755725,-0.07633587786259542,-0.1297709923664122
1.0675799560546875,2.1282742309570315,0.39278320312500004,-0.20610687022900762,-0.41221374045801523,0.1984732824427481
1.6199313354492189,2.052831115722656,-1.1873309326171875,-0.9847328244274809,0.022900763358778626,0.26717557251908397
0.6218069458007813,2.1381536865234376,-0.8861572265625001,-0.40458015267175573,0.2748091603053435,0.5419847328244275
-1.3648617553710938,2.6264382934570314,1.122964782714844,-1.0,-0.3282442748091603,1.5038167938931297
-1.5792160034179688,-0.238304443359375,1.5573614501953126,0.4351145038167939,-0.4427480916030534,2.099236641221374
-2.864443359375,-0.36793487548828124,0.4972659301757813,-0.47328244274809156,-0.5419847328244275,2.564885496183206
-2.201921081542969,-1.6582516479492189,0.031734008789062504,-0.29770992366412213,-0.8396946564885496,2.8244274809160306
-1.1792477416992189,-2.0243902587890625,-0.5245092773437501,-0.3053435114503817,-0.007633587786259542,2.2519083969465647
-0.21225860595703125,-1.9540365600585938,-0.4248165893554688,-0.38167938931297707,0.19083969465648853,1.4274809160305344
0.9104067993164063,-2.8336074829101565,0.8762777709960938,0.6870229007633587,-0.366412213740458,1.083969465648855
1.7729132080078125,-4.3523492431640625,-0.00508941650390625,2.519083969465649,0.6641221374045801,-1.282442748091603
1.6881893920898439,-2.5102798461914064,-0.0014968872070312501,1.297709923664122,-0.9389312977099237,-1.4427480916030533
2.1118084716796877,-2.2180874633789065,-0.018860778808593753,0.5572519083969465,-0.32061068702290074,-2.9541984732824424
1.0403366088867188,-0.8786727905273438,-0.2505789184570313,-0.08396946564885496,1.282442748091603,-3.7404580152671754
-0.15208374023437501,0.44038421630859376,1.1430230712890626,0.9694656488549618,0.8625954198473282,-0.9618320610687022
-0.6182144165039063,1.1304492187500002,0.25357269287109374,1.7938931297709924,0.6793893129770993,-0.5267175572519084
0.34727783203125,1.7809963989257813,0.28770172119140625,1.0076335877862594,0.6335877862595419,-0.25190839694656486
1.6280145263671877,0.7511380004882813,0.5218148803710938,2.404580152671756,0.9770992366412213,0.46564885496183206
2.182162170410156,-0.17663269042968752,0.8352630615234375,2.2061068702290076,1.1374045801526718,0.47328244274809156
2.4791445922851563,-0.689765625,1.691781921386719,1.0229007633587786,-0.06870229007633588,0.1984732824427481
1.9103274536132813,-0.77838134765625,1.916015625,0.04580152671755725,-0.030534351145038167,-0.06870229007633588
1.2250524902343751,0.4302053833007813,1.533710632324219,-0.41221374045801523,-0.7633587786259541,0.030534351145038167
-0.27872039794921877,0.24129821777343752,2.9132418823242188,1.2213740458015268,0.08396946564885496,0.6946564885496183
-2.6120681762695312,-1.4917977905273438,2.7018814086914062,0.8778625954198473,-0.007633587786259542,1.9083969465648853
-2.788401489257813,-2.2243743896484376,2.5872198486328126,0.6183206106870229,-0.0916030534351145,2.5343511450381677
-4.216731262207031,-0.9777667236328126,2.0246896362304687,0.1450381679389313,0.2748091603053435,2.946564885496183
-1.1262579345703125,-0.7909552001953125,1.2481045532226562,-0.11450381679389313,0.10687022900763359,2.114503816793893
2.890489196777344,-2.369572448730469,1.482217712402344,0.6793893129770993,0.33587786259541985,0.3282442748091603
3.250939636230469,-2.6228457641601564,0.56282958984375,0.83206106870229,0.42748091603053434,-1.3129770992366412
2.336341552734375,-1.090931396484375,0.15328125,0.9007633587786259,0.40458015267175573,-1.66412213740458
2.0552261352539065,-0.6283932495117188,-0.508941650390625,0.4961832061068702,1.0381679389312977,-2.236641221374046
1.517244873046875,-0.038020935058593754,0.111368408203125,-0.1450381679389313,1.900763358778626,-2.099236641221374
0.258662109375,0.8164022827148438,2.156415710449219,0.3969465648854962,1.297709923664122,-0.9847328244274809
0.3020718383789063,0.5008584594726563,2.518063659667969,-0.4427480916030534,0.48854961832061067,-0.4961832061068702
0.9430389404296875,-0.33709899902343754,1.8711090087890625,0.7862595419847328,0.7633587786259541,-0.7175572519083969
1.1020083618164063,0.7738906860351563,1.6076568603515626,0.23664122137404578,0.648854961832061,-0.20610687022900762
2.0423529052734377,0.4400848388671875,1.0894345092773439,-0.29770992366412213,0.41221374045801523,-0.13740458015267176
1.7890795898437502,0.2625540161132813,1.4412030029296876,0.03816793893129771,0.0916030534351145,-0.0916030534351145
2.0926483154296878,0.11645782470703125,1.2714559936523437,0.10687022900763359,-0.07633587786259542,-0.015267175572519083
2.0459454345703127,0.5254074096679687,0.47720764160156254,0.20610687022900762,0.007633587786259542,0.0916030534351145
1.9714004516601564,0.41852966308593753,0.6583309936523438,-0.030534351145038167,-0.04580152671755725,0.061068702290076333
1.8525476074218752,0.21794677734375,0.7658074951171875,0.08396946564885496,-0.1297709923664122,0.030534351145038167
1.8238073730468751,0.38619689941406254,0.4017645263671875,0.03816793893129771,-0.0916030534351145,0.03816793893129771
1.5429913330078127,0.6032455444335938,0.417930908203125,-0.1984732824427481,-0.17557251908396945,0.05343511450381679
1.490600280761719,0.7307803344726563,0.4700225830078125,-0.45038167938931295,-0.25190839694656486,0.022900763358778626
1.23822509765625,1.212778015136719,0.365240478515625,-0.21374045801526717,0.007633587786259542,0.015267175572519083
1.1657757568359375,1.7962646484375,0.17483642578125,-0.6412213740458015,-0.12213740458015267,0.183206106870229
1.3873150634765625,2.161505126953125,-0.0556842041015625,-0.6641221374045801,0.2213740458015267,0.40458015267175573
-0.38709503173828125,2.805466003417969,1.06099365234375,0.07633587786259542,-0.3893129770992366,0.8854961832061068
-1.563648376464844,1.9372714233398438,0.17573455810546876,0.03816793893129771,0.183206106870229,1.66412213740458
-1.550775146484375,-0.082628173828125,-0.05119354248046875,-0.061068702290076333,0.37404580152671757,2.1526717557251906
-1.708547058105469,-1.0340496826171877,0.22722747802734375,-0.9541984732824427,0.03816793893129771,2.33587786259542
-1.1002120971679688,-2.103725280761719,0.2655477905273438,-0.4351145038167939,-0.648854961832061,2.5877862595419847
0.316142578125,-2.4863296508789063,0.24548950195312502,0.061068702290076333,-0.061068702290076333,1.6412213740458015
0.7876620483398438,-1.914818115234375,0.5739065551757813,0.3511450381679389,0.13740458015267176,1.6412213740458015
0.8292755126953125,-2.2246737670898438,0.8292755126953125,0.183206106870229,0.2748091603053435,1.465648854961832
1.8696121215820314,-3.1748977661132813,0.97477294921875,0.7557251908396946,0.4427480916030534,0.015267175572519083
2.0049307250976565,-4.6765750122070315,1.2948074340820312,2.1374045801526718,0.6946564885496183,-0.8931297709923663
1.3046868896484376,-3.381468200683594,1.114881591796875,1.4274809160305344,-1.2671755725190839,-1.015267175572519
1.482217712402344,-2.3126907348632812,0.47032196044921876,0.7099236641221374,-1.0076335877862594,-2.3206106870229006
1.0298583984375,-1.0385403442382812,0.6682104492187501,0.6335877862595419,-0.5572519083969465,-3.282442748091603
0.09250762939453125,1.5989749145507812,1.1337423706054688,-0.5267175572519084,0.2213740458015267,-2.9389312977099236
-0.26435028076171874,1.0220745849609376,1.9255957031250002,1.3435114503816794,-0.648854961832061,-1.366412213740458
0.5547463989257813,0.5816903686523438,-0.31913635253906253,1.6717557251908397,-0.05343511450381679,-1.2290076335877862
0.8370593261718751,0.46523254394531255,-0.7655081176757813,1.732824427480916,0.3511450381679389,-0.8702290076335878
1.3364208984375001,0.06676116943359375,-0.02125579833984375,1.7709923664122136,0.7251908396946565,-0.13740458015267176
1.8244061279296875,0.011975097656250001,1.0696755981445314,1.0610687022900762,0.5343511450381679,0.22900763358778625
2.195933532714844,-0.1778302001953125,1.6726217651367188,-0.13740458015267176,-0.022900763358778626,-0.015267175572519083
1.8097366333007814,-0.45385620117187503,2.704875183105469,0.29770992366412213,-0.21374045801526717,0.23664122137404578
2.1103115844726563,-1.4864089965820313,1.6349002075195314,0.732824427480916,-0.15267175572519084,-0.07633587786259542
-0.17753082275390625,1.9588265991210938,2.195933532714844,2.145038167938931,-0.1984732824427481,1.198473282442748
-1.7947677612304689,0.5026547241210938,2.455793151855469,0.3893129770992366,0.46564885496183206,1.381679389312977
-3.2910562133789063,-0.17992584228515626,2.4956103515625,-0.030534351145038167,0.6870229007633587,2.045801526717557
-5.055586853027344,-1.5920892333984376,0.9915380859375,-0.8778625954198473,0.030534351145038167,2.6946564885496183
-3.0778994750976563,-0.7723937988281251,0.8379574584960938,-0.5114503816793893,-0.2900763358778626,2.679389312977099
-0.4954696655273438,-0.41882904052734377,1.0867401123046876,0.022900763358778626,0.25190839694656486,2.114503816793893
1.560355224609375,-1.3223501586914064,1.3968951416015625,0.3282442748091603,0.46564885496183206,0.9618320610687022
2.5641677856445315,-1.3061837768554687,1.0271640014648438,0.6335877862595419,0.6259541984732824,-0.29770992366412213
3.0240115356445316,-2.647694091796875,1.891766052246094,0.8549618320610687,0.6183206106870229,-1.4351145038167938
2.392325134277344,-0.6661148071289062,-0.0520916748046875,1.916030534351145,0.19083969465648853,-1.1068702290076335
2.981499938964844,-0.6173162841796875,-0.4532574462890625,0.8015267175572519,0.8778625954198473,-1.83206106870229
0.8954379272460938,-0.15597564697265626,0.3879931640625,-1.3969465648854962,2.1221374045801524,-2.801526717557252
0.3224295043945313,0.39817199707031253,1.5917898559570314,0.2213740458015267,0.8396946564885496,0.061068702290076333
-0.1149609375,-1.984273681640625,1.1433224487304687,1.4427480916030533,0.47328244274809156,-0.5190839694656488
1.2244537353515625,1.347198486328125,2.5045916748046877,-0.3511450381679389,-0.015267175572519083,0.030534351145038167
1.9079324340820314,-0.0963995361328125,1.3504916381835939,0.45038167938931295,-0.25190839694656486,0.4198473282442748
2.2519171142578127,-0.08771759033203125,0.9627978515625001,0.35877862595419846,0.1297709923664122,-0.030534351145038167
2.173480224609375,0.18561401367187502,0.7810757446289063,-0.22900763358778625,-0.2595419847328244,-0.07633587786259542
1.9010467529296875,0.23800506591796877,0.5284011840820313,0.2213740458015267,0.1450381679389313,0.1984732824427481
1.931283874511719,-0.13501922607421876,0.7035369873046875,0.0916030534351145,-0.030534351145038167,0.061068702290076333
1.7540524291992188,-0.02155517578125,0.6562353515625,0.33587786259541985,-0.04580152671755725,0.10687022900763359
1.7459692382812502,-0.12364288330078126,0.4454736328125,0.06870229007633588,0.0,0.007633587786259542
1.686991882324219,-0.06915618896484375,0.4233197021484375,0.11450381679389313,0.015267175572519083,0.007633587786259542
1.5654446411132814,-0.11526031494140626,0.22243743896484375,-0.03816793893129771,-0.04580152671755725,0.015267175572519083
1.5226336669921876,-0.183218994140625,0.2700384521484375,0.03816793893129771,0.007633587786259542,-0.015267175572519083
1.4133609008789063,-0.13412109375,0.27991790771484376,0.08396946564885496,0.007633587786259542,0.0
1.3229489135742187,-0.08322692871093751,0.1143621826171875,-0.03816793893129771,-0.022900763358778626,-0.03816793893129771
1.1097921752929687,0.21285736083984377,0.0532891845703125,-0.2213740458015267,-0.015267175572519083,-0.11450381679389313
1.1187734985351563,1.5049703979492188,-0.106578369140625,-0.6717557251908397,-0.04580152671755725,0.09923664122137404
1.2585827636718752,1.47533203125,-1.1205697631835938,-0.9770992366412213,0.15267175572519084,0.6106870229007634
1.161285095214844,1.9193087768554689,0.13172607421875002,-0.12213740458015267,0.8931297709923663,0.183206106870229
-0.7520361328125,2.9925769042968753,1.7753082275390626,0.04580152671755725,-0.8091603053435115,1.1832061068702289
-0.7550299072265625,1.5633489990234375,-0.26884094238281253,1.1603053435114503,-0.030534351145038167,1.7938931297709924
-2.248623962402344,-0.16854949951171877,0.5245092773437501,0.13740458015267176,0.4351145038167939,2.49618320610687
-1.4546749877929688,-1.095721435546875,0.6256988525390625,-0.21374045801526717,0.4809160305343511,2.3206106870229006
-0.6104306030273438,-1.8507513427734377,0.6032455444335938,0.05343511450381679,0.5877862595419847,2.4580152671755724
0.6280938720703125,-2.6731411743164064,0.7526348876953125,0.9618320610687022,0.8473282442748091,1.083969465648855
1.2118798828125001,-3.715573425292969,1.3145663452148437,0.4809160305343511,0.9694656488549618,0.16793893129770993
2.542013854980469,-3.977828063964844,2.3303540039062502,1.366412213740458,0.2900763358778626,-0.9465648854961831
2.5965005493164064,-2.86683837890625,1.4109658813476562,1.1374045801526718,-0.9847328244274809,-1.4580152671755724
2.130369873046875,-1.9537371826171877,0.16046630859375,1.1068702290076335,-0.29770992366412213,-2.679389312977099
0.4343966674804688,0.5745053100585937,0.566422119140625,0.03816793893129771,0.7175572519083969,-3.0381679389312977
-0.22363494873046877,1.3133688354492188,1.7546511840820314,0.7709923664122137,0.7404580152671756,-1.2213740458015268
0.2832110595703125,0.3373983764648438,1.0011181640625,1.8702290076335877,-0.26717557251908397,-0.648854961832061
1.1163784790039064,-0.140108642578125,-1.3834231567382813,4.183206106870228,0.4351145038167939,0.13740458015267176
1.9390676879882813,-0.7274871826171876,0.0,-0.6641221374045801,-0.7404580152671756,0.2595419847328244
2.7533743286132815,-1.1885284423828126,0.4520599365234375,-0.29770992366412213,0.8396946564885496,-0.4427480916030534
0.30386810302734374,1.1310479736328125,3.553610229492188,-0.40458015267175573,-0.23664122137404578,0.12213740458015267
2.28245361328125,-1.2672647094726563,1.191222839355469,0.13740458015267176,0.09923664122137404,0.007633587786259542
1.4316229248046877,-1.3765374755859376,1.6744180297851563,1.3893129770992365,-0.21374045801526717,0.03816793893129771
1.0205776977539063,-0.5631289672851563,2.3797512817382813,1.816793893129771,0.13740458015267176,0.5114503816793893
-1.0577005004882813,1.0184820556640626,2.3408322143554687,0.8473282442748091,-0.26717557251908397,1.6564885496183206
-2.9273126220703127,0.23620880126953125,1.5088623046875,0.4961832061068702,0.08396946564885496,2.045801526717557
-3.7571868896484375,0.6658154296875001,0.6625222778320313,-0.8396946564885496,0.5419847328244275,2.045801526717557
-3.866759033203125,0.258662109375,0.7466473388671876,-1.114503816793893,0.11450381679389313,2.6030534351145036
-0.987945556640625,-0.05987548828125,1.81302978515625,-0.12213740458015267,-0.26717557251908397,1.8702290076335877
1.47533203125,-1.2876223754882814,1.5968792724609375,-0.21374045801526717,0.15267175572519084,0.8931297709923663
1.648671569824219,-2.4156765747070312,-0.164058837890625,2.6412213740458013,0.4580152671755725,-1.9465648854961832
1.6091537475585938,-0.5445675659179687,-0.6631210327148438,0.9007633587786259,0.007633587786259542,-2.2061068702290076
1.5094610595703126,-0.5718109130859376,-0.465831298828125,0.6030534351145038,0.8473282442748091,-2.4198473282442747
0.9421408081054689,-0.22123992919921875,-0.30566436767578126,-0.7862595419847328,2.0,-2.7022900763358777
-0.6667135620117188,0.737666015625,1.6947756958007814,-0.7633587786259541,1.8625954198473282,-0.9923664122137404
-0.6514453125,0.32871643066406253,2.4063958740234375,0.5267175572519084,-0.7557251908396946,0.04580152671755725
1.0903326416015626,-0.5185217285156251,1.5196398925781252,-0.183206106870229,0.5877862595419847,0.20610687022900762
1.2301419067382813,0.3403921508789063,1.6343014526367188,1.0305343511450382,1.3358778625954197,-0.32061068702290074
1.4870077514648439,0.36643798828125,2.8264224243164064,0.3129770992366412,0.04580152671755725,-0.015267175572519083
1.9893630981445314,0.39517822265625,0.6652166748046875,-0.4961832061068702,-0.1297709923664122,-0.11450381679389313
2.2995181274414063,0.2697390747070313,0.5694158935546876,0.007633587786259542,0.17557251908396945,0.061068702290076333
2.023492126464844,-0.09071136474609376,0.7969427490234375,0.05343511450381679,0.1297709923664122,0.007633587786259542
2.023492126464844,-0.09071136474609376,0.7969427490234375,0.05343511450381679,0.1297709923664122,0.007633587786259542
2.023492126464844,-0.09071136474609376,0.7969427490234375,0.05343511450381679,0.1297709923664122,0.007633587786259542
1.8145266723632814,0.26884094238281253,0.40775207519531254,-0.33587786259541985,-0.22900763358778625,0.10687022900763359
1.819915466308594,0.15178436279296875,0.30326934814453127,0.03816793893129771,0.07633587786259542,-0.061068702290076333
1.6582516479492189,0.3020718383789063,0.32751892089843754,0.15267175572519084,0.0,0.0
1.6031661987304688,0.3769161987304688,0.21405487060546877,0.0,0.007633587786259542,-0.007633587786259542
1.6031661987304688,0.3769161987304688,0.21405487060546877,0.0,0.007633587786259542,-0.007633587786259542
1.4166540527343752,0.35595977783203125,0.0544866943359375,-0.022900763358778626,0.0,-0.007633587786259542
1.3070819091796875,0.7750881958007813,0.0664617919921875,-0.24427480916030533,0.05343511450381679,-0.11450381679389313
1.3070819091796875,0.7750881958007813,0.0664617919921875,-0.24427480916030533,0.05343511450381679,-0.11450381679389313
1.3070819091796875,0.7750881958007813,0.0664617919921875,-0.24427480916030533,0.05343511450381679,-0.11450381679389313
1.3070819091796875,0.7750881958007813,0.0664617919921875,-0.24427480916030533,0.05343511450381679,-0.11450381679389313
1.3070819091796875,0.7750881958007813,0.0664617919921875,-0.24427480916030533,0.05343511450381679,-0.11450381679389313
1.3070819091796875,0.7750881958007813,0.0664617919921875,-0.24427480916030533,0.05343511450381679,-0.11450381679389313
1.3070819091796875,0.7750881958007813,0.0664617919921875,-0.24427480916030533,0.05343511450381679,-0.11450381679389313
1.3070819091796875,0.7750881958007813,0.0664617919921875,-0.24427480916030533,0.05343511450381679,-0.11450381679389313
-0.13801300048828125,-2.5081842041015627,0.0032931518554687503,-0.3053435114503817,0.04580152671755725,1.7175572519083968
-0.13801300048828125,-2.5081842041015627,0.0032931518554687503,-0.3053435114503817,0.04580152671755725,1.7175572519083968
-0.13801300048828125,-2.5081842041015627,0.0032931518554687503,-0.3053435114503817,0.04580152671755725,1.7175572519083968
2.70876708984375,-1.9938537597656252,0.11765533447265626,1.0763358778625953,-0.030534351145038167,-2.610687022900763
1.071771240234375,0.1119671630859375,0.3251239013671875,0.007633587786259542,0.6106870229007634,-3.3587786259541983
-0.6259982299804688,0.9723779296875,2.1737796020507814,0.16793893129770993,1.2748091603053435,-2.2061068702290076
-0.6259982299804688,0.9723779296875,2.1737796020507814,0.16793893129770993,1.2748091603053435,-2.2061068702290076
-0.6259982299804688,0.9723779296875,2.1737796020507814,0.16793893129770993,1.2748091603053435,-2.2061068702290076
-0.6259982299804688,0.9723779296875,2.1737796020507814,0.16793893129770993,1.2748091603053435,-2.2061068702290076
2.482138366699219,-1.0364447021484375,0.3104544067382813,-0.6717557251908397,0.08396946564885496,0.10687022900763359
2.049238586425781,-1.2528945922851562,1.1543994140625,-0.26717557251908397,0.9770992366412213,-0.40458015267175573
1.6648379516601564,-0.43768981933593754,1.747166748046875,0.7175572519083969,0.2900763358778626,0.04580152671755725
1.76033935546875,-0.7277865600585938,1.5708334350585937,0.9236641221374046,0.1450381679389313,0.16030534351145037
0.4643344116210938,0.3400927734375,2.8853997802734375,1.916030534351145,-0.16793893129770993,0.7175572519083969
-3.50630859375,-0.41074584960937505,1.6097525024414063,0.08396946564885496,0.21374045801526717,1.9618320610687021
-5.606141967773437,-1.3477972412109376,0.10148895263671875,-1.1450381679389312,-0.3129770992366412,2.6717557251908395
-3.860472106933594,-0.9107061767578125,0.5870791625976562,-0.8473282442748091,-0.9694656488549618,2.5725190839694654
-1.4980847167968752,-0.21615051269531252,1.1618838500976563,0.07633587786259542,-0.549618320610687,2.8167938931297707
2.029479675292969,-1.8794915771484375,1.6956738281250001,0.9007633587786259,0.07633587786259542,0.7251908396946565
2.9704229736328127,-2.235750732421875,1.0499166870117187,0.7938931297709924,1.0610687022900762,-0.8625954198473282
1.474134521484375,-2.4572900390625003,-0.5936654663085937,2.7938931297709924,0.9083969465648855,-1.5267175572519083
2.5249493408203127,-0.5766009521484375,-1.2304412841796875,0.8473282442748091,0.1297709923664122,-2.030534351145038
2.198927307128906,-0.2999761962890625,-1.2502001953125002,0.5114503816793893,1.9923664122137403,-2.6946564885496183
0.6553372192382813,0.641865234375,-0.18651214599609375,-0.9312977099236641,2.2519083969465647,-2.0534351145038165
-0.1945953369140625,-0.6158193969726563,1.3067825317382813,-1.1221374045801527,0.6870229007633587,-1.1832061068702289
1.2202624511718752,-0.20806732177734377,1.3501922607421877,1.5725190839694656,0.7175572519083969,0.549618320610687
1.5232324218750002,0.06376739501953126,1.4597644042968752,-0.2213740458015267,-0.2900763358778626,0.007633587786259542
2.10522216796875,0.0437091064453125,1.4666500854492188,-0.03816793893129771,-0.2900763358778626,0.11450381679389313
1.9294876098632814,0.2820135498046875,0.7529342651367188,0.17557251908396945,-0.22900763358778625,0.15267175572519084
1.828298034667969,0.319735107421875,0.52929931640625,0.22900763358778625,-0.09923664122137404,0.1450381679389313
1.6696279907226563,0.19609222412109376,0.5451663208007813,0.33587786259541985,-0.13740458015267176,0.17557251908396945
1.6013699340820313,0.036524047851562505,0.446671142578125,0.3053435114503817,0.015267175572519083,0.15267175572519084
1.6007711791992187,0.008382568359375,0.7882608032226562,0.06870229007633588,0.23664122137404578,-0.06870229007633588
1.3864169311523438,0.08412506103515625,0.6831793212890626,0.07633587786259542,-0.10687022900763359,0.007633587786259542
1.40108642578125,-0.07903564453125,0.30805938720703124,0.04580152671755725,-0.04580152671755725,-0.015267175572519083
1.3265414428710938,-0.013172607421875001,0.27872039794921877,0.07633587786259542,0.0916030534351145,-0.11450381679389313
1.2022998046875,0.4101470947265625,0.2712359619140625,-0.061068702290076333,0.10687022900763359,-0.04580152671755725
1.1448193359375,0.6966513061523438,0.10328521728515626,-0.4198473282442748,-0.10687022900763359,0.07633587786259542
1.141226806640625,1.2097842407226562,-0.4385879516601563,-0.7480916030534351,0.007633587786259542,0.34351145038167935
1.2654684448242188,1.9851718139648438,-0.0383203125,-1.0763358778625953,0.1450381679389313,0.5114503816793893
0.6927593994140625,2.5357269287109374,0.8448431396484375,0.1297709923664122,0.8396946564885496,0.648854961832061
-0.9867480468750001,3.65719482421875,0.8367599487304688,-0.8091603053435115,-0.3893129770992366,1.366412213740458
-2.106120300292969,2.0483404541015626,-0.43739044189453125,0.16793893129770993,-0.6870229007633587,2.5267175572519083
-3.647015991210938,0.29069549560546876,-0.6744973754882813,0.16793893129770993,0.2213740458015267,3.0534351145038165
-2.386636962890625,-1.5244299316406251,-0.03682342529296875,-0.7709923664122137,-0.04580152671755725,2.404580152671756
-0.20627105712890625,-2.2875430297851564,0.18651214599609375,0.366412213740458,0.9389312977099237,1.4045801526717556
1.93278076171875,-4.827161865234375,1.8163229370117189,1.618320610687023,0.37404580152671757,-0.8625954198473282
1.5564633178710938,-4.180506591796875,-0.12034973144531251,2.1068702290076335,-1.7251908396946565,-0.7480916030534351
1.5055691528320314,-2.9285101318359374,-0.5188211059570312,1.1832061068702289,-1.5190839694656488,-2.519083969465649
0.036524047851562505,0.6918612670898437,-0.012873229980468751,-0.25190839694656486,0.16030534351145037,-4.152671755725191
-0.44038421630859376,1.6390914916992188,2.6527835083007814,0.23664122137404578,0.17557251908396945,-1.9312977099236641
0.40116577148437504,1.2852273559570313,1.0903326416015626,0.2213740458015267,-0.5343511450381679,-1.564885496183206
0.542471923828125,1.161285095214844,0.29219238281250004,1.9770992366412212,0.32061068702290074,-0.7251908396946565
0.6583309936523438,-0.33769775390625,-1.3382171630859376,3.7862595419847325,0.2213740458015267,-0.6870229007633587
1.3082794189453126,-0.6601272583007813,0.0544866943359375,1.2290076335877862,0.32061068702290074,-0.1984732824427481
2.2510189819335937,-0.6077362060546875,1.5896942138671877,0.7099236641221374,0.6335877862595419,-0.21374045801526717
2.4099884033203125,-0.6104306030273438,2.2552102661132816,0.03816793893129771,-0.0916030534351145,0.007633587786259542
0.6858737182617188,1.05620361328125,2.6734405517578126,1.3740458015267174,-0.030534351145038167,0.007633587786259542
-1.4277310180664062,1.9040405273437502,1.7842895507812502,-0.17557251908396945,0.1297709923664122,1.7633587786259541
-4.54335205078125,-0.1359173583984375,1.7777032470703127,-0.20610687022900762,-0.007633587786259542,2.5801526717557253
-4.358636169433594,-0.7322772216796876,1.443897399902344,-0.12213740458015267,0.24427480916030533,2.5267175572519083
-3.3584161376953126,-0.16854949951171877,1.3211526489257812,0.03816793893129771,0.015267175572519083,2.595419847328244
-1.4645544433593751,0.41463775634765626,0.6744973754882813,0.2595419847328244,0.8473282442748091,2.236641221374046
-0.1119671630859375,-0.6274951171875001,1.4319223022460938,-0.10687022900763359,0.7404580152671756,1.3129770992366412
1.6450790405273439,-2.544708251953125,2.312391357421875,0.48854961832061067,0.007633587786259542,0.03816793893129771
2.528242492675781,-3.327280883789063,0.5703140258789062,2.236641221374046,0.9618320610687022,-1.7175572519083968
3.1290930175781253,-2.043849792480469,-0.21136047363281252,2.312977099236641,0.1297709923664122,-0.9389312977099237
2.2112017822265626,-1.7453704833984376,-0.37272491455078127,1.3435114503816794,-0.4580152671755725,-2.2519083969465647
0.4888833618164063,-0.01526824951171875,-0.85502197265625,-1.083969465648855,1.0610687022900762,-4.068702290076335
-1.2412188720703126,0.781973876953125,2.9590466308593752,-0.4580152671755725,0.7938931297709924,-0.5572519083969465
0.9532177734375,-0.3634442138671875,1.0912307739257814,0.549618320610687,0.35877862595419846,-0.46564885496183206
1.7450711059570314,0.4113446044921875,1.7274078369140626,0.1984732824427481,0.17557251908396945,0.1450381679389313
1.9821780395507813,-0.2871029663085938,1.5382012939453127,0.05343511450381679,-0.1297709923664122,0.030534351145038167
2.0947439575195315,-0.04460723876953125,0.55803955078125,0.41221374045801523,-0.09923664122137404,0.07633587786259542
1.999541931152344,0.13861175537109377,0.7433541870117187,0.06870229007633588,0.29770992366412213,0.1984732824427481
1.922901306152344,0.532891845703125,0.5703140258789062,-0.47328244274809156,-0.03816793893129771,-0.05343511450381679
1.8124310302734377,1.6950750732421875,0.20686981201171875,-0.9770992366412213,-0.007633587786259542,0.07633587786259542
1.4163546752929688,1.9938537597656252,0.33410522460937503,-1.7022900763358777,-0.6641221374045801,-0.16793893129770993
1.1439212036132813,2.4779470825195316,-0.6403683471679688,-0.4351145038167939,0.09923664122137404,0.6793893129770993
0.42002655029296876,2.106120300292969,1.0582992553710937,0.022900763358778626,0.9465648854961831,1.0916030534351144
-0.8433462524414063,1.9252963256835938,2.009122009277344,-0.46564885496183206,-0.8396946564885496,1.7022900763358777
-0.9286688232421876,-0.8430468750000001,0.4939727783203125,0.8549618320610687,-0.7862595419847328,1.748091603053435
-1.2334350585937501,-0.0940045166015625,0.6212081909179688,0.183206106870229,-0.030534351145038167,2.0229007633587783
-1.5917898559570314,-0.53408935546875,0.27842102050781253,-0.06870229007633588,0.7786259541984732,2.32824427480916
-1.9513421630859376,-0.8086184692382813,-0.17004638671875,-1.6870229007633588,0.21374045801526717,2.648854961832061
-0.8038284301757813,-2.065704345703125,0.00868194580078125,-0.38167938931297707,-0.6564885496183206,1.366412213740458
0.8565188598632812,-2.0839663696289064,-0.07035369873046875,0.8473282442748091,-0.13740458015267176,0.4580152671755725
1.9800823974609376,-3.253334655761719,-1.0397378540039064,-0.007633587786259542,-0.15267175572519084,-1.4732824427480915
-0.6652166748046875,-0.3059637451171875,-1.7759069824218752,0.5038167938931297,0.007633587786259542,-3.4885496183206106
-0.6125262451171876,1.4055770874023439,1.7642312622070313,-1.2748091603053435,1.6259541984732824,-3.450381679389313
-0.5948629760742188,1.8803897094726563,2.8467800903320315,0.282442748091603,1.2061068702290076,-1.6793893129770991
0.4221221923828125,1.4492861938476562,0.6631210327148438,2.8244274809160306,0.0,0.061068702290076333
1.3666580200195313,-0.6271957397460938,-0.4796026611328125,2.091603053435114,-0.8015267175572519,0.12213740458015267
1.5229330444335938,-0.9675878906250001,0.00928070068359375,0.48854961832061067,-0.648854961832061,-0.2213740458015267
1.8914666748046876,-1.1517050170898437,0.9032217407226563,0.5801526717557252,0.4351145038167939,-0.564885496183206
1.7289047241210938,-0.738863525390625,1.3783337402343752,0.5572519083969465,0.3969465648854962,-0.32061068702290074
1.7809963989257813,-0.8110134887695313,2.0755838012695316,-0.04580152671755725,0.46564885496183206,-0.08396946564885496
1.8887722778320313,-1.232237548828125,1.588796081542969,0.47328244274809156,-0.25190839694656486,-0.015267175572519083
1.7717156982421876,-0.8601113891601563,1.5861016845703126,0.1984732824427481,0.09923664122137404,0.09923664122137404
1.2055929565429688,-1.2579840087890626,1.9402651977539063,0.6335877862595419,-0.6412213740458015,-0.4580152671755725
0.8370593261718751,-0.48618896484375,2.0854632568359377,1.549618320610687,0.26717557251908397,0.37404580152671757
-1.7887802124023438,1.3600717163085938,2.665057983398438,0.549618320610687,0.38167938931297707,1.4885496183206106
-4.906496887207031,-0.48109954833984375,2.46447509765625,0.1450381679389313,-0.03816793893129771,3.282442748091603
-6.298901367187501,-1.563648376464844,1.6295114135742188,-0.16793893129770993,0.5419847328244275,3.32824427480916
-3.9065762329101563,-0.6128256225585937,1.0223739624023438,-0.3053435114503817,0.2213740458015267,2.8244274809160306
-1.2549902343750001,0.0089813232421875,1.5226336669921876,0.12213740458015267,-0.04580152671755725,2.4198473282442747
1.7438735961914062,-1.7585430908203126,1.1394305419921875,0.3893129770992366,0.5954198473282443,1.0687022900763359
1.5049703979492188,-0.3897894287109375,0.9816586303710938,1.1908396946564885,-0.48854961832061067,-1.381679389312977
3.134481811523438,-0.0748443603515625,-0.5553451538085937,0.5572519083969465,0.2748091603053435,-1.83206106870229
1.110091552734375,-0.7888595581054688,0.3637435913085938,0.030534351145038167,0.8091603053435115,-2.610687022900763
0.7044351196289063,0.496966552734375,1.1115884399414062,-0.2900763358778626,1.9694656488549618,-1.7404580152671756
0.43230102539062504,1.4025833129882814,2.7198440551757814,2.1221374045801524,1.2519083969465647,-0.26717557251908397
1.274150390625,0.8472381591796876,1.5250286865234375,-1.381679389312977,-0.732824427480916,-0.9465648854961831
1.445394287109375,-0.06496490478515625,0.9765692138671875,0.6030534351145038,0.9618320610687022,-0.15267175572519084
0.5622308349609375,1.2519964599609377,2.9060568237304687,0.4961832061068702,0.5114503816793893,0.1450381679389313
1.9351757812500001,0.5406756591796875,0.47481262207031255,-0.6641221374045801,0.10687022900763359,0.06870229007633588
2.1525238037109378,0.44337799072265627,1.064586181640625,-0.2213740458015267,0.10687022900763359,-0.06870229007633588
1.9561322021484375,0.39817199707031253,0.6900650024414063,-0.26717557251908397,-0.022900763358778626,-0.06870229007633588
1.953138427734375,0.3146456909179688,0.726888427734375,0.022900763358778626,0.061068702290076333,-0.03816793893129771
2.0157083129882816,0.5161267089843751,0.5215155029296875,0.366412213740458,0.17557251908396945,0.03816793893129771
1.8459613037109377,0.5562432861328125,0.34338592529296874,0.12213740458015267,0.06870229007633588,0.022900763358778626
1.9444564819335939,0.346080322265625,0.24608825683593752,0.05343511450381679,0.022900763358778626,-0.007633587786259542
1.8941610717773438,0.2556683349609375,0.18351837158203127,0.183206106870229,0.05343511450381679,0.007633587786259542
1.8519488525390626,0.30895751953125,0.035326538085937505,0.022900763358778626,0.022900763358778626,0.015267175572519083
1.8211129760742188,0.2763253784179688,-0.02185455322265625,-0.10687022900763359,0.007633587786259542,-0.007633587786259542
1.7486636352539064,0.238304443359375,-0.013471984863281251,0.0,0.015267175572519083,-0.007633587786259542
1.6866925048828125,0.5481600952148438,-0.17812957763671877,-0.16793893129770993,0.022900763358778626,-0.030534351145038167
1.6091537475585938,1.232237548828125,-0.21884490966796877,-0.7175572519083969,0.0916030534351145,0.22900763358778625
1.7342935180664063,1.64058837890625,0.281414794921875,-0.7404580152671756,0.07633587786259542,-0.06870229007633588
1.4528787231445313,2.053130493164063,-0.32841705322265624,-0.5725190839694656,-0.29770992366412213,0.21374045801526717
1.2400213623046876,2.6851162719726562,-0.8319699096679688,-0.11450381679389313,0.6259541984732824,0.648854961832061
1.3950988769531252,2.4641757202148438,0.46912445068359376,0.7480916030534351,1.16793893129771,1.2748091603053435
1.2792398071289064,1.5061679077148438,-0.013771362304687501,-0.8244274809160305,-0.7022900763358778,0.6717557251908397
-0.42571472167968755,1.7992584228515627,-1.2487033081054688,-0.41221374045801523,-1.2519083969465647,1.4045801526717556
-1.4807208251953126,0.9990225219726563,-1.809437255859375,-0.11450381679389313,-0.061068702290076333,2.5267175572519083
-1.9693048095703125,-0.7481442260742188,-1.0337503051757813,-1.0610687022900762,0.42748091603053434,2.213740458015267
-0.5825885009765626,-1.2199630737304688,-0.48618896484375,-0.9465648854961831,0.48854961832061067,2.068702290076336
1.2229568481445312,-3.1713052368164063,0.20746856689453125,1.282442748091603,0.7938931297709924,1.2900763358778626
2.902464294433594,-4.766687622070313,1.4861096191406251,1.366412213740458,1.1832061068702289,-0.07633587786259542
1.7286053466796876,-3.2584240722656252,2.50758544921875,1.564885496183206,-0.9236641221374046,-0.4961832061068702
2.2052142333984377,-2.50758544921875,-0.33799713134765624,1.1450381679389312,-1.6946564885496183,-1.5267175572519083
0.5298980712890625,0.101788330078125,-0.35296600341796874,0.15267175572519084,-1.534351145038168,-3.9083969465648853
0.00209564208984375,1.2849279785156251,1.5013778686523438,0.366412213740458,0.24427480916030533,-1.6106870229007633
0.9559121704101563,1.0017169189453126,0.6316864013671876,1.7862595419847327,0.17557251908396945,-0.38167938931297707
1.3298345947265626,0.6637197875976563,-0.26345214843750003,1.6946564885496183,0.19083969465648853,-0.1297709923664122
1.7738113403320312,0.7328759765625,-0.324525146484375,1.6717557251908397,1.0916030534351144,0.0916030534351145
1.7190252685546876,-0.11645782470703125,1.6507672119140626,0.648854961832061,-0.2595419847328244,0.15267175572519084
2.292931823730469,-1.179547119140625,1.350791015625,-0.1450381679389313,-0.19083969465648853,-0.04580152671755725
2.0516336059570315,-1.7741107177734377,1.4322216796875,-0.4427480916030534,-0.3129770992366412,-0.03816793893129771
2.288441162109375,-1.8052459716796876,1.5558645629882812,1.2213740458015268,0.20610687022900762,-0.12213740458015267
1.7414785766601564,-0.808319091796875,1.8052459716796876,2.229007633587786,0.22900763358778625,0.5725190839694656
0.7200027465820313,2.143243103027344,1.5552658081054689,-0.12213740458015267,0.2900763358778626,0.3969465648854962
-1.6777111816406252,0.8846603393554688,2.7638525390625,0.7480916030534351,0.16030534351145037,1.9694656488549618
-3.3623080444335938,0.104183349609375,1.0732681274414062,-0.282442748091603,0.03816793893129771,2.213740458015267
-4.6553192138671875,-0.0508941650390625,-0.1802252197265625,-1.297709923664122,-0.03816793893129771,2.3206106870229006
-2.119292907714844,-0.3499722290039063,1.7423767089843751,-0.16030534351145037,-0.5190839694656488,2.5801526717557253
0.08891510009765625,-0.7313790893554688,2.3378384399414065,-0.5954198473282443,-0.6412213740458015,1.3129770992366412
1.9435583496093751,-0.604742431640625,1.2675640869140625,-0.21374045801526717,-0.6870229007633587,1.0534351145038168
2.6315277099609378,-1.00351318359375,0.7370672607421875,-0.007633587786259542,0.3511450381679389,0.3053435114503817
0.6035449218750001,-0.031734008789062504,0.3691323852539063,1.7557251908396947,-0.3053435114503817,-2.015267175572519
1.9660116577148439,0.0,-0.5658233642578125,0.549618320610687,1.2748091603053435,-2.015267175572519
1.2989987182617189,-1.1720626831054688,0.05748046875,0.46564885496183206,2.49618320610687,-2.5114503816793894
0.6445596313476563,-0.06915618896484375,1.8148260498046875,0.0,1.4351145038167938,-2.1221374045801524
-0.096998291015625,-0.00508941650390625,2.1911434936523437,-0.06870229007633588,1.534351145038168,-1.549618320610687
0.16615447998046876,-0.162861328125,2.5671615600585938,0.9236641221374046,1.083969465648855,-1.015267175572519
0.7813751220703126,1.2936099243164063,1.5864010620117188,0.7633587786259541,0.6183206106870229,-0.35877862595419846
1.9836749267578127,0.8304730224609376,1.319356384277344,0.5801526717557252,0.3511450381679389,0.061068702290076333
2.3073019409179687,0.12184661865234375,1.34360595703125,-0.46564885496183206,-0.19083969465648853,-0.022900763358778626
2.121687927246094,0.020357666015625,0.7532336425781251,-0.09923664122137404,-0.07633587786259542,0.07633587786259542
2.216590576171875,-0.10029144287109376,0.6002517700195312,-0.04580152671755725,0.03816793893129771,-0.015267175572519083
2.0710931396484376,0.15358062744140627,0.7613168334960938,0.015267175572519083,0.030534351145038167,0.022900763358778626
2.0264859008789062,0.1293310546875,0.506546630859375,-0.04580152671755725,-0.030534351145038167,-0.015267175572519083
1.7917739868164064,0.1550775146484375,0.389190673828125,-0.07633587786259542,-0.030534351145038167,-0.04580152671755725
1.691781921386719,0.6888674926757813,0.41074584960937505,-0.12213740458015267,-0.08396946564885496,-0.05343511450381679
1.5187417602539064,0.7188052368164063,0.4071533203125,-0.29770992366412213,-0.37404580152671757,0.12213740458015267
1.8291961669921877,0.3158432006835938,-0.023950195312500002,0.366412213740458,0.40458015267175573,0.04580152671755725
1.4409036254882812,3.0889764404296876,-1.4031820678710938,-1.648854961832061,0.29770992366412213,-0.21374045801526717
1.4409036254882812,3.0889764404296876,-1.4031820678710938,-1.648854961832061,0.29770992366412213,-0.21374045801526717
1.4409036254882812,3.0889764404296876,-1.4031820678710938,-1.648854961832061,0.29770992366412213,-0.21374045801526717
1.4409036254882812,3.0889764404296876,-1.4031820678710938,-1.648854961832061,0.29770992366412213,-0.21374045801526717
1.4409036254882812,3.0889764404296876,-1.4031820678710938,-1.648854961832061,0.29770992366412213,-0.21374045801526717
1.4409036254882812,3.0889764404296876,-1.4031820678710938,-1.648854961832061,0.29770992366412213,-0.21374045801526717
1.4409036254882812,3.0889764404296876,-1.4031820678710938,-1.648854961832061,0.29770992366412213,-0.21374045801526717
0.8277786254882813,-2.0169058227539063,-0.7948471069335938,0.40458015267175573,0.4198473282442748,1.015267175572519
2.3150857543945316,-3.7781433105468754,0.46762756347656254,1.6106870229007633,0.6641221374045801,-0.2595419847328244
0.93884765625,-4.7505212402343755,-0.08352630615234376,2.7022900763358777,-0.4961832061068702,-1.7175572519083968
1.2546908569335937,-2.592608642578125,-0.3882925415039063,1.3282442748091603,-0.6564885496183206,-2.5801526717557253
0.5643264770507813,-0.5966592407226563,0.5029541015625,0.12213740458015267,0.23664122137404578,-4.083969465648855
-0.961600341796875,0.664617919921875,2.173180847167969,-0.9694656488549618,1.4351145038167938,-3.015267175572519
-0.961600341796875,0.664617919921875,2.173180847167969,-0.9694656488549618,1.4351145038167938,-3.015267175572519
2.0052301025390626,0.10208770751953125,0.7762857055664063,1.1832061068702289,0.5343511450381679,0.2595419847328244
2.0052301025390626,0.10208770751953125,0.7762857055664063,1.1832061068702289,0.5343511450381679,0.2595419847328244
2.4959097290039063,-0.6804849243164063,0.9187893676757813,0.7022900763358778,0.09923664122137404,0.03816793893129771
0.9077124023437501,0.45954437255859376,2.149530029296875,0.7557251908396946,0.4427480916030534,-0.030534351145038167
-1.916015625,1.9980450439453126,2.2348526000976565,0.9923664122137404,-0.47328244274809156,1.8854961832061068
-4.196672973632813,-0.6224057006835938,1.7091458129882813,0.38167938931297707,-0.3053435114503817,2.16030534351145
-4.863386535644532,-1.9291882324218752,1.8088385009765626,0.08396946564885496,0.015267175572519083,2.49618320610687
-5.045408020019532,-2.2273681640625003,0.8271798706054688,-0.366412213740458,-0.19083969465648853,2.778625954198473
-3.1461575317382815,-0.9247769165039063,0.7256909179687501,-0.2748091603053435,0.16793893129770993,2.6412213740458013
-0.4140390014648438,-0.6433621215820313,0.8702902221679688,-0.5267175572519084,0.29770992366412213,2.16793893129771
1.4193484497070312,-1.9573297119140627,1.7582437133789064,-0.5190839694656488,-0.2213740458015267,0.9541984732824427
3.050057373046875,-2.5006997680664065,0.5583389282226563,1.1374045801526718,1.1450381679389312,-1.0229007633587786
1.169667663574219,-1.8821859741210938,0.22543121337890626,1.4809160305343512,0.1984732824427481,-2.2213740458015265
1.4894027709960938,-0.20627105712890625,-0.5433700561523438,1.114503816793893,0.549618320610687,-2.1908396946564883
0.6607260131835938,-0.19190093994140625,0.16016693115234376,0.08396946564885496,0.9236641221374046,-2.7404580152671754
-0.28680358886718754,1.1388317871093752,2.059417419433594,-0.7786259541984732,0.8854961832061068,-1.2748091603053435
0.5367837524414063,0.7176077270507812,1.8288967895507813,-0.9770992366412213,0.3282442748091603,-0.5343511450381679
1.2597802734375,0.06676116943359375,1.409468994140625,0.8473282442748091,1.3740458015267174,0.061068702290076333
0.7047344970703125,0.7969427490234375,3.300037536621094,1.198473282442748,0.7938931297709924,0.022900763358778626
2.33993408203125,0.32721954345703125,0.13801300048828125,-0.6793893129770993,0.23664122137404578,-0.33587786259541985
2.3366409301757813,0.07035369873046875,0.6373745727539063,-0.09923664122137404,-0.061068702290076333,-0.16793893129770993
2.3770568847656253,0.1299298095703125,0.32871643066406253,0.3129770992366412,0.061068702290076333,-0.03816793893129771
2.059417419433594,0.4194277954101563,0.6295907592773438,0.08396946564885496,-0.007633587786259542,0.06870229007633588
2.1378543090820314,0.15417938232421877,0.34218841552734375,-0.05343511450381679,-0.05343511450381679,-0.05343511450381679
2.103725280761719,0.2709365844726563,0.17932708740234377,-0.030534351145038167,0.0916030534351145,-0.07633587786259542
1.9040405273437502,0.7879614257812501,0.12903167724609377,-0.45038167938931295,-0.06870229007633588,-0.3053435114503817
1.680106201171875,1.6459771728515626,0.4014651489257813,-0.549618320610687,-0.26717557251908397,-0.1297709923664122
0.15238311767578125,2.4516018676757816,0.6580316162109375,-0.34351145038167935,-1.2366412213740459,0.46564885496183206
0.3065625,2.3207739257812503,0.7505392456054688,0.5419847328244275,0.47328244274809156,1.5725190839694656
-1.172362060546875,0.27812164306640624,0.00928070068359375,0.41221374045801523,0.061068702290076333,1.9770992366412212
-1.4055770874023439,-0.028740234375,0.536484375,0.29770992366412213,0.8015267175572519,2.229007633587786
-2.9159362792968753,-1.1561956787109375,-0.03323089599609375,-1.3893129770992365,0.9770992366412213,2.5267175572519083
-2.1609063720703126,-2.0175045776367186,0.3715274047851563,-0.10687022900763359,0.6412213740458015,2.2213740458015265
0.69216064453125,-3.3365615844726566,1.2986993408203125,1.3969465648854962,0.7557251908396946,0.9007633587786259
2.139650573730469,-4.520898742675781,2.2600003051757813,0.4961832061068702,0.9923664122137404,-0.5801526717557252
0.8026309204101563,-3.8751416015625,2.239043884277344,1.648854961832061,-1.0916030534351144,-0.35877862595419846
1.5226336669921876,-3.352727966308594,0.46193939208984375,1.4122137404580153,-1.3358778625954197,-0.9618320610687022
-1.2744497680664064,0.9586065673828126,0.2939886474609375,-1.0381679389312977,0.9389312977099237,-4.564885496183206
-1.0571017456054688,1.3681549072265626,2.394720153808594,2.6030534351145036,0.4427480916030534,0.24427480916030533
1.264270935058594,-0.3362008666992188,-0.5122348022460937,4.183206106870228,-0.13740458015267176,0.564885496183206
1.7112414550781252,-0.1790277099609375,-1.2768447875976563,2.404580152671756,-0.7709923664122137,0.648854961832061
2.0408560180664064,-1.0780581665039064,-0.6289920043945313,0.5267175572519084,-0.40458015267175573,0.29770992366412213
2.1779708862304688,-0.8684939575195313,0.523311767578125,0.3053435114503817,0.34351145038167935,-0.1450381679389313
2.0288809204101566,0.162861328125,2.4405249023437503,0.4580152671755725,0.17557251908396945,0.366412213740458
1.8471588134765626,-0.219144287109375,2.9234207153320315,1.4351145038167938,0.24427480916030533,-0.1984732824427481
-0.7993377685546875,2.7162515258789064,1.593885498046875,0.5801526717557252,-0.24427480916030533,1.3893129770992365
-3.074606323242188,0.7035369873046875,1.4145584106445312,0.38167938931297707,0.1984732824427481,2.16030534351145
-3.802093505859375,-0.3418890380859375,0.8882528686523438,-0.15267175572519084,0.2213740458015267,2.2900763358778624
-4.4493475341796875,-0.887354736328125,0.06466552734375,-1.3053435114503815,-0.11450381679389313,2.282442748091603
-2.9021649169921875,-0.202379150390625,-0.30267059326171875,0.183206106870229,0.6259541984732824,2.778625954198473
0.28021728515625,-1.1226654052734375,1.60705810546875,-0.35877862595419846,-0.15267175572519084,1.5725190839694656
2.1076171875000003,-2.3575973510742188,0.425115966796875,-0.5801526717557252,-0.40458015267175573,-0.8473282442748091
1.9546353149414064,0.7451504516601563,-0.07454498291015625,0.4961832061068702,0.7251908396946565,-1.7175572519083968
1.6510665893554688,-0.4903802490234375,-0.51732421875,1.381679389312977,1.6412213740458015,-2.1297709923664123
0.33709899902343754,-0.81191162109375,-0.3703298950195313,0.1297709923664122,3.145038167938931,-2.5038167938931295
-0.8316705322265625,0.5733078002929688,1.9288888549804688,-1.114503816793893,2.3664122137404577,-1.3435114503816794
-0.7086264038085938,-0.4822970581054688,2.229164428710938,0.7480916030534351,0.6641221374045801,-0.04580152671755725
0.3646417236328125,1.3172607421875,1.7806970214843751,0.5038167938931297,0.47328244274809156,-0.2900763358778626
1.6606466674804687,0.9373507690429688,2.3477178955078126,0.3129770992366412,-0.007633587786259542,0.13740458015267176
2.1665945434570313,0.4451742553710938,1.4486874389648439,0.12213740458015267,0.13740458015267176,0.10687022900763359
2.2049148559570315,0.3448828125,1.057401123046875,-0.16793893129770993,0.03816793893129771,-0.12213740458015267
2.182760925292969,0.27872039794921877,1.1112890625,0.11450381679389313,0.022900763358778626,-0.015267175572519083
2.0722906494140627,0.6017486572265626,0.91729248046875,0.282442748091603,0.03816793893129771,0.0916030534351145
2.090552673339844,0.39278320312500004,0.7978408813476563,-0.16030534351145037,-0.030534351145038167,-0.03816793893129771
2.022294616699219,0.40086639404296875,0.7206015014648438,0.1450381679389313,0.030534351145038167,0.022900763358778626
1.9399658203125,0.5415737915039063,0.5843847656250001,-0.015267175572519083,-0.03816793893129771,0.007633587786259542
1.9163150024414064,0.4209246826171875,0.5457650756835938,0.030534351145038167,0.0,-0.007633587786259542
1.8863772583007814,0.6613247680664063,0.3849993896484375,-0.17557251908396945,-0.03816793893129771,-0.07633587786259542
1.4241384887695314,1.8145266723632814,0.8936416625976563,-1.2061068702290076,-0.21374045801526717,-0.09923664122137404
1.3229489135742187,2.8383975219726563,0.6640191650390626,-0.6870229007633587,-0.1984732824427481,0.21374045801526717
0.7247927856445313,3.0554461669921875,0.8340655517578125,-1.8625954198473282,-0.3511450381679389,0.17557251908396945
-0.29189300537109375,2.4048989868164066,1.9504440307617188,0.030534351145038167,-0.4198473282442748,1.0687022900763359
-0.8640032958984375,1.70525390625,1.8741027832031252,-0.09923664122137404,-0.6564885496183206,1.648854961832061
-0.32751892089843754,0.5026547241210938,0.47481262207031255,0.7404580152671756,0.12213740458015267,1.8702290076335877
-1.6378939819335938,-0.0017962646484375,-0.12693603515625002,-0.6564885496183206,-0.20610687022900762,2.6259541984732824
-2.4411236572265627,-1.33402587890625,-0.552052001953125,-1.4198473282442747,-0.32061068702290074,2.9541984732824424
-2.3638842773437503,-1.8821859741210938,-0.2924917602539063,-0.5725190839694656,-0.7633587786259541,2.748091603053435
-1.1885284423828126,-2.0980371093750003,-0.6271957397460938,-0.5190839694656488,-0.8625954198473282,1.6259541984732824
1.1588900756835938,-1.4699432373046877,-1.5085629272460939,0.2213740458015267,0.8473282442748091,-0.015267175572519083
1.6992663574218752,-2.7177484130859377,-1.2983999633789063,1.748091603053435,1.4732824427480915,-1.8931297709923662
1.5732284545898438,-1.1558963012695314,-1.9031423950195314,1.7022900763358777,2.4351145038167936,-2.9618320610687023
-3.8359231567382817,-0.8580157470703126,1.9642153930664064,-0.3053435114503817,-0.12213740458015267,1.916030534351145
-3.8574783325195314,-0.8894503784179688,0.4727169799804688,-0.8167938931297709,-0.6259541984732824,2.1068702290076335
-3.793411560058594,-0.85023193359375,0.6113287353515625,-0.2900763358778626,-0.8473282442748091,2.595419847328244
-2.741099853515625,-0.24459136962890626,1.7612374877929688,0.23664122137404578,-0.7480916030534351,2.9847328244274807
0.7589218139648438,-1.868115234375,1.1966116333007812,-0.47328244274809156,-0.35877862595419846,0.8702290076335878
2.398312683105469,-1.1741583251953125,0.5263055419921875,-0.015267175572519083,0.6946564885496183,-0.7862595419847328
2.0282821655273438,-0.250279541015625,0.5397775268554688,0.8625954198473282,1.099236641221374,-2.015267175572519
1.3298345947265626,-0.06556365966796876,0.32302825927734374,0.07633587786259542,1.9770992366412212,-2.1526717557251906
0.5289999389648438,-0.67060546875,1.2651690673828127,0.8396946564885496,2.282442748091603,-2.267175572519084
0.5409750366210938,1.939666442871094,2.006427612304688,-0.9618320610687022,1.1068702290076335,-1.0687022900763359
1.2720547485351563,0.688568115234375,2.2411395263671876,-0.2748091603053435,1.0229007633587786,-0.8015267175572519
0.5610333251953126,0.046702880859375004,2.4516018676757816,0.47328244274809156,1.5190839694656488,-1.4580152671755724
1.6603472900390626,1.024768981933594,1.9546353149414064,0.022900763358778626,-0.10687022900763359,0.1450381679389313
1.6756155395507812,-0.13022918701171876,0.7143145751953125,-0.5343511450381679,-0.16030534351145037,0.04580152671755725
2.34472412109375,0.24998016357421876,0.8678952026367188,0.2900763358778626,0.16793893129770993,0.05343511450381679
1.7238153076171876,0.113763427734375,0.7792794799804688,0.17557251908396945,-0.10687022900763359,-0.007633587786259542
1.9878662109375,-0.09580078125000001,0.7646099853515625,-0.06870229007633588,0.0916030534351145,0.061068702290076333
1.7498611450195314,-0.07304809570312501,0.5535488891601563,0.09923664122137404,-0.06870229007633588,-0.015267175572519083
1.7262103271484377,-0.058677978515625,0.57240966796875,-0.061068702290076333,0.007633587786259542,0.015267175572519083
1.6217276000976564,-0.15298187255859375,0.49337402343750003,0.2595419847328244,-0.015267175572519083,-0.015267175572519083
1.299298095703125,0.9651928710937501,0.32302825927734374,-0.2748091603053435,-0.022900763358778626,-0.022900763358778626
1.3980926513671876,1.651365966796875,-1.2328363037109376,-1.045801526717557,-0.061068702290076333,0.45038167938931295
1.5232324218750002,0.8978329467773438,-1.6292120361328126,-0.8167938931297709,0.5038167938931297,0.47328244274809156
0.710123291015625,2.4536975097656253,0.8074209594726562,-0.732824427480916,1.1526717557251909,0.1984732824427481
-0.70892578125,3.4084121704101564,1.919608154296875,-0.15267175572519084,-0.648854961832061,1.366412213740458
-1.8103353881835937,2.4932153320312502,-0.2966830444335938,0.16793893129770993,-0.32061068702290074,2.0763358778625953
-2.860551452636719,0.5813909912109375,-0.295784912109375,-0.05343511450381679,0.549618320610687,2.381679389312977
-3.4784664916992187,-1.1924203491210938,0.13022918701171876,-1.0076335877862594,0.40458015267175573,2.5877862595419847
-2.8770172119140627,-2.2423370361328128,0.07304809570312501,-0.6793893129770993,-0.4427480916030534,2.5877862595419847
-1.26217529296875,-2.7006838989257815,-0.23680755615234375,0.23664122137404578,0.16793893129770993,1.900763358778626
1.2352313232421877,-3.9014868164062504,0.03592529296875,0.8854961832061068,0.7099236641221374,0.06870229007633588
1.4004876708984375,-4.993016967773438,1.2618759155273438,1.8015267175572518,0.7404580152671756,-1.9618320610687021
0.501756591796875,-3.318000183105469,-0.9657916259765625,1.900763358778626,-1.1755725190839694,-2.3664122137404577
-1.5678396606445313,2.5512945556640627,1.4424005126953126,-0.8854961832061068,0.5954198473282443,-3.030534351145038
-1.6642391967773438,1.5238311767578125,2.412084045410156,2.0,-0.9770992366412213,-0.6641221374045801
0.5278024291992188,1.112486572265625,0.023351440429687502,1.6946564885496183,0.5343511450381679,-1.1450381679389312
0.7167095947265625,0.42122406005859375,-0.6026467895507813,3.045801526717557,0.8091603053435115,-0.6717557251908397
1.2543914794921875,0.00029937744140625,0.29488677978515626,1.3969465648854962,0.45038167938931295,0.04580152671755725
2.2013223266601565,-0.7726931762695313,1.3555810546875,-0.366412213740458,0.07633587786259542,0.17557251908396945
2.0911514282226564,-1.23822509765625,2.04295166015625,0.46564885496183206,-0.061068702290076333,0.015267175572519083
0.7771838378906251,-0.11346405029296876,2.705174560546875,0.7633587786259541,-0.7480916030534351,-0.21374045801526717
0.87897216796875,0.9702822875976563,2.361189880371094,1.4961832061068703,0.022900763358778626,0.4198473282442748
0.87897216796875,0.9702822875976563,2.361189880371094,1.4961832061068703,0.022900763358778626,0.4198473282442748
-4.757107543945312,0.5427713012695313,2.8632458496093753,-0.11450381679389313,0.7709923664122137,2.717557251908397
-6.787784729003906,-1.1651770019531251,2.2219793701171877,-0.24427480916030533,0.04580152671755725,3.7251908396946565
-4.7505212402343755,-0.9843530273437501,1.503772888183594,-0.38167938931297707,0.35877862595419846,2.6564885496183206
-1.5477813720703126,-0.6364764404296875,1.354084167480469,-0.4427480916030534,0.1297709923664122,1.916030534351145
0.8831634521484375,-1.419049072265625,1.6061599731445313,-0.23664122137404578,-0.25190839694656486,0.6412213740458015
2.4878265380859377,-1.44419677734375,0.4903802490234375,-0.9618320610687022,-0.03816793893129771,-0.3969465648854962
1.1115884399414062,-1.5226336669921876,-0.017962646484375,1.7404580152671756,1.549618320610687,-2.8931297709923665
0.012274475097656251,0.2505789184570313,1.349593505859375,-0.4809160305343511,1.8778625954198473,-2.229007633587786
0.707728271484375,1.3738430786132814,1.749561767578125,0.1984732824427481,2.1068702290076335,-1.900763358778626
1.2795391845703126,0.5969586181640625,2.0911514282226564,0.007633587786259542,1.8625954198473282,-1.3740458015267174
0.7020401000976563,0.32302825927734374,2.7620562744140624,0.48854961832061067,1.580152671755725,-1.4580152671755724
1.0454260253906251,1.5094610595703126,1.8384768676757814,1.0610687022900762,0.732824427480916,-0.23664122137404578
1.7040563964843751,0.8005352783203126,1.5145504760742188,-0.5190839694656488,0.022900763358778626,0.015267175572519083
2.142045593261719,-0.28830047607421877,0.8256829833984375,-0.4427480916030534,0.23664122137404578,-0.10687022900763359
2.0746856689453126,0.21225860595703125,0.5894741821289062,0.23664122137404578,0.10687022900763359,0.04580152671755725
2.048639831542969,0.6807843017578126,0.5736071777343751,-0.282442748091603,0.19083969465648853,-0.030534351145038167
2.15312255859375,0.3487747192382813,0.5763015747070312,0.1450381679389313,0.24427480916030533,-0.030534351145038167
2.012714538574219,0.7373666381835938,0.5757028198242188,-0.2213740458015267,0.03816793893129771,-0.04580152671755725
2.1210891723632814,0.4248165893554688,0.40386016845703127,-0.09923664122137404,0.04580152671755725,0.0
2.0339703369140625,0.710123291015625,0.27722351074218754,-0.03816793893129771,0.11450381679389313,-0.061068702290076333
1.4995816040039063,1.8738034057617188,0.6340814208984376,-0.5190839694656488,-0.19083969465648853,-0.1450381679389313
1.56394775390625,2.851270751953125,-0.3116519165039063,-1.4351145038167938,-0.5190839694656488,-0.13740458015267176
1.9381695556640626,2.1058209228515627,-0.6589297485351563,-0.7251908396946565,-0.40458015267175573,0.5267175572519084
0.9373507690429688,1.5298187255859377,1.7606387329101563,3.2748091603053435,1.8473282442748091,1.66412213740458
-0.07214996337890625,3.594624938964844,-1.0642868041992188,-0.34351145038167935,0.648854961832061,1.7404580152671756
-1.11847412109375,0.3550616455078125,-2.0001406860351563,-0.6717557251908397,0.8549618320610687,1.7633587786259541
-2.2872436523437503,-1.5741265869140626,-1.93278076171875,-2.5343511450381677,0.8244274809160305,1.5954198473282442
-1.6651373291015625,-2.5914111328125,-1.2960049438476564,-2.450381679389313,-0.5877862595419847,1.7633587786259541
-2.336042175292969,-2.4234603881835937,-0.5858816528320313,-0.20610687022900762,-1.381679389312977,2.404580152671756
-1.1250604248046876,-3.187471618652344,0.1676513671875,0.0916030534351145,-0.5190839694656488,1.816793893129771
2.278861083984375,-3.712879028320313,-0.35775604248046877,0.8167938931297709,0.6259541984732824,-0.8702290076335878
1.0759625244140625,-3.937112731933594,-0.9786648559570313,2.480916030534351,0.8244274809160305,-2.1068702290076335
1.76991943359375,-1.9755917358398438,0.07604187011718751,1.3282442748091603,0.07633587786259542,-2.732824427480916
1.1394305419921875,-0.6939569091796876,-0.5670208740234375,0.11450381679389313,1.3893129770992365,-3.6412213740458013
-2.083068237304688,1.0571017456054688,2.960244140625,0.6335877862595419,1.7404580152671756,-2.1526717557251906
-0.36164794921875004,1.0160870361328125,2.305206298828125,1.4809160305343512,-0.1297709923664122,-0.8625954198473282
0.43739044189453125,1.0340496826171877,0.7059320068359375,1.564885496183206,0.06870229007633588,-0.37404580152671757
0.5514532470703125,1.4277310180664062,0.5215155029296875,1.8778625954198473,1.0610687022900762,-0.007633587786259542
1.7537530517578126,-0.446671142578125,0.37511993408203126,2.213740458015267,0.24427480916030533,0.33587786259541985
2.4468118286132814,-1.082548828125,0.7391629028320312,1.648854961832061,0.17557251908396945,0.030534351145038167
1.6363970947265625,-0.8427474975585938,0.7167095947265625,5.114503816793893,2.1221374045801524,0.7404580152671756
0.050295410156250005,2.575244750976563,-0.2568658447265625,-0.183206106870229,0.23664122137404578,1.0916030534351144
-2.2112017822265626,0.9627978515625001,0.3059637451171875,0.022900763358778626,1.2366412213740459,1.5877862595419847
-3.5494189453125,0.28530670166015626,0.5053491210937501,-1.2290076335877862,0.35877862595419846,1.8931297709923662
-5.256768493652344,-1.063089294433594,0.34099090576171875,-1.450381679389313,0.6183206106870229,2.3053435114503817
-3.8302349853515625,-0.643062744140625,0.8882528686523438,-1.2595419847328244,-0.1984732824427481,2.5572519083969465
-0.8205935668945313,-1.1897259521484376,1.7235159301757814,-0.04580152671755725,-0.3282442748091603,2.183206106870229
1.4355148315429689,-2.156715087890625,0.8921447753906251,-0.732824427480916,-0.21374045801526717,0.8931297709923663
1.4355148315429689,-2.156715087890625,0.8921447753906251,-0.732824427480916,-0.21374045801526717,0.8931297709923663
1.4355148315429689,-2.156715087890625,0.8921447753906251,-0.732824427480916,-0.21374045801526717,0.8931297709923663
0.0335302734375,0.3095562744140625,-1.4636563110351564,0.24427480916030533,2.5572519083969465,-2.7022900763358777
-1.0588980102539063,0.7430548095703126,0.814306640625,0.09923664122137404,2.259541984732824,-1.9083969465648853
-1.0588980102539063,0.7430548095703126,0.814306640625,0.09923664122137404,2.259541984732824,-1.9083969465648853
-1.1948153686523437,0.11555969238281251,1.79865966796875,0.7786259541984732,0.8473282442748091,-0.6870229007633587
2.395917663574219,-0.13202545166015625,1.217867431640625,0.08396946564885496,0.015267175572519083,0.20610687022900762
2.0743862915039064,0.44996429443359376,0.8415499877929687,-0.061068702290076333,0.13740458015267176,-0.0916030534351145
2.282154235839844,0.12424163818359375,1.1454180908203127,0.07633587786259542,0.015267175572519083,0.19083969465648853
2.1234841918945313,0.018860778808593753,0.9466314697265625,0.007633587786259542,0.04580152671755725,-0.007633587786259542
2.2576052856445314,0.28231292724609375,0.6568341064453125,0.2213740458015267,0.2748091603053435,-0.05343511450381679
2.083068237304688,0.6613247680664063,0.6640191650390626,-0.1984732824427481,-0.03816793893129771,-0.015267175572519083
2.083068237304688,0.6613247680664063,0.6640191650390626,-0.1984732824427481,-0.03816793893129771,-0.015267175572519083
2.083068237304688,0.6613247680664063,0.6640191650390626,-0.1984732824427481,-0.03816793893129771,-0.015267175572519083
1.9681072998046876,0.5882766723632813,0.384400634765625,0.030534351145038167,-0.022900763358778626,0.04580152671755725
1.9157162475585938,0.56282958984375,0.3227288818359375,-0.183206106870229,-0.05343511450381679,-0.1450381679389313
1.7597406005859375,0.506546630859375,0.4400848388671875,-0.13740458015267176,0.06870229007633588,-0.4351145038167939
0.484991455078125,1.6229251098632813,0.8747808837890625,-0.7022900763358778,-0.48854961832061067,-0.7404580152671756
-0.09131011962890626,3.141068115234375,1.1861334228515625,-0.564885496183206,-1.0076335877862594,0.3282442748091603
-0.036524047851562505,3.357518005371094,-0.14879058837890627,-0.3282442748091603,-1.5572519083969465,1.282442748091603
1.439107360839844,1.4403048706054689,-1.3370196533203125,-0.10687022900763359,0.7099236641221374,1.1832061068702289
-0.6721023559570313,2.7641519165039066,2.9485684204101563,-0.03816793893129771,0.4198473282442748,0.37404580152671757
-2.5465045166015625,4.279600524902344,1.8720071411132813,-0.8854961832061068,-1.4351145038167938,2.396946564885496
-3.9044805908203126,1.1008108520507813,0.32602203369140625,0.2213740458015267,-0.9389312977099237,3.015267175572519
-3.828139343261719,-1.2020004272460938,0.24189697265625001,0.13740458015267176,-0.5877862595419847,2.9618320610687023
-1.9654129028320313,-2.714455261230469,-0.08232879638671875,0.06870229007633588,0.061068702290076333,2.236641221374046
-1.9654129028320313,-2.714455261230469,-0.08232879638671875,0.06870229007633588,0.061068702290076333,2.236641221374046
-1.9654129028320313,-2.714455261230469,-0.08232879638671875,0.06870229007633588,0.061068702290076333,2.236641221374046
-1.9654129028320313,-2.714455261230469,-0.08232879638671875,0.06870229007633588,0.061068702290076333,2.236641221374046
-1.9654129028320313,-2.714455261230469,-0.08232879638671875,0.06870229007633588,0.061068702290076333,2.236641221374046
-1.9654129028320313,-2.714455261230469,-0.08232879638671875,0.06870229007633588,0.061068702290076333,2.236641221374046
-1.9654129028320313,-2.714455261230469,-0.08232879638671875,0.06870229007633588,0.061068702290076333,2.236641221374046
-1.9654129028320313,-2.714455261230469,-0.08232879638671875,0.06870229007633588,0.061068702290076333,2.236641221374046
-1.9654129028320313,-2.714455261230469,-0.08232879638671875,0.06870229007633588,0.061068702290076333,2.236641221374046
-1.9654129028320313,-2.714455261230469,-0.08232879638671875,0.06870229007633588,0.061068702290076333,2.236641221374046
-1.9654129028320313,-2.714455261230469,-0.08232879638671875,0.06870229007633588,0.061068702290076333,2.236641221374046
-1.9654129028320313,-2.714455261230469,-0.08232879638671875,0.06870229007633588,0.061068702290076333,2.236641221374046
-1.9654129028320313,-2.714455261230469,-0.08232879638671875,0.06870229007633588,0.061068702290076333,2.236641221374046
-1.9654129028320313,-2.714455261230469,-0.08232879638671875,0.06870229007633588,0.061068702290076333,2.236641221374046
-1.9654129028320313,-2.714455261230469,-0.08232879638671875,0.06870229007633588,0.061068702290076333,2.236641221374046
-1.9654129028320313,-2.714455261230469,-0.08232879638671875,0.06870229007633588,0.061068702290076333,2.236641221374046
-1.9654129028320313,-2.714455261230469,-0.08232879638671875,0.06870229007633588,0.061068702290076333,2.236641221374046
1.7669256591796876,0.01916015625,0.006286926269531251,0.2900763358778626,0.16030534351145037,0.37404580152671757
1.7669256591796876,0.01916015625,0.006286926269531251,0.2900763358778626,0.16030534351145037,0.37404580152671757
1.5343093872070312,-0.384400634765625,0.5322930908203125,1.6412213740458015,1.1526717557251909,-2.541984732824427
0.40505767822265626,-1.4403048706054689,-0.21165985107421875,0.33587786259541985,3.1984732824427478,-3.3053435114503817
-1.4277310180664062,0.06376739501953126,2.4381298828125,-1.0305343511450382,1.83206106870229,-1.4580152671755724
-0.07544311523437501,-1.0400372314453126,2.180365905761719,-0.33587786259541985,0.4351145038167939,-0.4961832061068702
0.1874102783203125,0.2856060791015625,2.569556579589844,1.0687022900763359,1.2442748091603053,-0.366412213740458
1.312470703125,0.32332763671875003,1.5274237060546876,0.7786259541984732,0.25190839694656486,0.19083969465648853
2.189945983886719,0.5349874877929688,1.2406201171875,-0.061068702290076333,0.061068702290076333,0.06870229007633588
1.7025595092773438,0.5254074096679687,0.9924362182617188,-0.33587786259541985,-0.04580152671755725,-0.09923664122137404
1.3418096923828127,0.4559518432617188,0.8687933349609376,-0.1450381679389313,-0.29770992366412213,0.4809160305343511
1.6040643310546876,-0.056282958984375006,0.31225067138671875,0.06870229007633588,-0.15267175572519084,0.3893129770992366
1.8148260498046875,0.10328521728515626,0.46253814697265627,-0.183206106870229,0.06870229007633588,0.07633587786259542
1.6100518798828125,0.20088226318359376,0.49576904296875,-0.13740458015267176,-0.061068702290076333,-0.015267175572519083
1.3870156860351563,0.2942880249023438,0.37931121826171876,-0.04580152671755725,0.09923664122137404,-0.06870229007633588
1.2855267333984375,0.33829650878906253,0.5146298217773437,-0.05343511450381679,0.11450381679389313,-0.17557251908396945
1.2966036987304688,0.5942642211914063,0.6328839111328125,0.06870229007633588,0.26717557251908397,-0.1984732824427481
1.2720547485351563,0.6514453125,0.6050418090820313,0.17557251908396945,0.05343511450381679,-0.11450381679389313
0.6999444580078126,1.60226806640625,-0.37272491455078127,-0.6946564885496183,-0.183206106870229,0.06870229007633588
1.1978091430664064,1.6615447998046875,-0.6245013427734375,-0.7251908396946565,0.11450381679389313,0.6717557251908397
1.5244299316406251,1.561552734375,-1.3789324951171875,-0.9847328244274809,0.6946564885496183,-0.46564885496183206
0.0077838134765625,2.3743624877929688,0.5337899780273437,-0.7175572519083969,0.24427480916030533,0.47328244274809156
-1.2214599609375,2.072889404296875,0.9136999511718751,-0.48854961832061067,0.24427480916030533,0.9618320610687022
-2.069296875,1.47772705078125,0.5466632080078125,-0.46564885496183206,-0.6030534351145038,2.32824427480916
-1.8175204467773438,-1.8699114990234376,0.4029620361328125,0.282442748091603,-0.022900763358778626,3.030534351145038
-1.3477972412109376,-2.884801025390625,-0.37092864990234375,-0.9236641221374046,-0.22900763358778625,2.5877862595419847
-1.086141357421875,-3.0003607177734377,-0.1191522216796875,-0.20610687022900762,0.15267175572519084,2.4427480916030535
-0.2844085693359375,-3.3290771484375004,-0.13651611328125002,-0.6564885496183206,0.3511450381679389,1.3511450381679388
0.7511380004882813,-2.101629638671875,-0.44607238769531254,-1.0381679389312977,0.24427480916030533,0.45038167938931295
1.2376263427734375,-2.4563919067382813,-2.994672546386719,2.5572519083969465,2.786259541984733,-3.2671755725190836
-1.7028588867187502,1.4935940551757814,3.397335205078125,0.549618320610687,2.1068702290076335,-1.8931297709923662
-1.2070898437500002,1.7750088500976564,1.7720150756835937,1.213740458015267,0.9541984732824427,-1.916030534351145
-0.4547543334960938,1.4196478271484376,1.2570858764648438,2.2519083969465647,0.6793893129770993,-0.48854961832061067
0.7921527099609376,0.42272094726562504,-0.7738906860351563,3.145038167938931,0.8625954198473282,-0.06870229007633588
1.3609698486328126,-0.561632080078125,-0.4577481079101563,2.297709923664122,-0.2213740458015267,1.099236641221374
2.292632446289063,-2.702480163574219,0.434696044921875,0.8549618320610687,-0.2595419847328244,-0.45038167938931295
0.02305206298828125,1.4328204345703126,1.7821939086914063,1.7786259541984732,0.3511450381679389,0.061068702290076333
-0.9277706909179688,2.7656488037109375,-0.13202545166015625,-0.11450381679389313,0.4198473282442748,1.66412213740458
-4.324507141113282,1.3714480590820313,0.4367916870117188,-1.1832061068702289,0.3129770992366412,2.267175572519084
-5.489684143066406,0.0640667724609375,-0.7367678833007812,-1.1908396946564885,0.08396946564885496,2.6946564885496183
-3.131488037109375,-0.1389111328125,0.22543121337890626,-0.7938931297709924,-0.4198473282442748,2.8244274809160306
-1.0062075805664064,-0.19100280761718752,1.3558804321289064,-0.4427480916030534,-0.45038167938931295,2.213740458015267
1.6313076782226563,-0.3972738647460938,0.7613168334960938,-0.3053435114503817,-0.37404580152671757,0.37404580152671757
2.8895910644531253,-2.3605911254882814,-0.14340179443359377,1.5038167938931297,1.5877862595419847,-2.5114503816793894
-0.17333953857421877,1.2564871215820312,-1.4265335083007813,0.9083969465648855,1.4351145038167938,-2.5114503816793894
-0.38859191894531253,-0.09729766845703125,-0.030835876464843752,0.015267175572519083,2.83206106870229,-2.3664122137404577
-1.3169613647460938,0.9523196411132813,2.239043884277344,-0.46564885496183206,1.5419847328244274,-1.1068702290076335
-0.8538244628906251,-0.39547760009765626,1.4373110961914064,-0.21374045801526717,2.183206106870229,-1.0534351145038168
-0.4805007934570313,2.182162170410156,3.1332843017578127,0.8015267175572519,0.40458015267175573,-0.1297709923664122
2.1225860595703128,0.23650817871093752,1.5226336669921876,0.4351145038167939,-0.37404580152671757,0.5877862595419847
2.4866290283203125,0.13172607421875002,0.6397695922851563,-0.6183206106870229,0.16030534351145037,0.1297709923664122
2.09564208984375,0.37781433105468754,0.6092330932617188,-0.6335877862595419,-0.15267175572519084,-0.061068702290076333
1.9959494018554689,0.24698638916015625,0.4071533203125,0.10687022900763359,0.061068702290076333,0.1450381679389313
1.8088385009765626,0.1646575927734375,0.8696914672851563,0.08396946564885496,0.24427480916030533,-0.061068702290076333
1.9495458984375,0.3487747192382813,0.8478369140625001,0.19083969465648853,-0.13740458015267176,-0.0916030534351145
1.9345770263671875,0.6556365966796875,0.31853759765625,-0.11450381679389313,0.12213740458015267,-0.015267175572519083
1.6956738281250001,0.5275030517578125,0.2532733154296875,-0.07633587786259542,-0.08396946564885496,-0.04580152671755725
1.7106427001953126,0.47151947021484375,0.3691323852539063,-0.03816793893129771,0.04580152671755725,0.04580152671755725
1.680106201171875,0.317340087890625,0.484991455078125,-0.19083969465648853,-0.12213740458015267,-0.015267175572519083
1.4762301635742188,1.0996133422851564,0.5547463989257813,0.17557251908396945,0.6793893129770993,-0.3893129770992366
0.7481442260742188,3.276985473632813,0.08592132568359376,-0.9236641221374046,-0.366412213740458,0.4809160305343511
0.34278717041015627,3.409310302734375,-1.21906494140625,-0.7175572519083969,0.6335877862595419,1.015267175572519
-1.1451187133789062,2.8683352661132813,-0.6334826660156251,-1.1374045801526718,0.366412213740458,1.3282442748091603
-3.007845153808594,1.0325527954101563,-0.9178912353515626,-0.83206106870229,-1.0763358778625953,2.045801526717557
-3.0291009521484376,-0.17693206787109375,-1.8124310302734377,-0.9541984732824427,-0.5725190839694656,2.4732824427480917
-2.777923278808594,-1.122964782714844,-1.9414627075195314,-0.9312977099236641,-1.4961832061068703,2.519083969465649
-1.1804452514648438,-1.3666580200195313,-1.0798544311523437,-0.20610687022900762,-0.6870229007633587,2.091603053435114
0.85023193359375,-2.2935305786132814,-1.9824774169921875,-0.9923664122137404,-0.38167938931297707,0.6641221374045801
2.2698797607421874,-1.823507995605469,-1.4588662719726564,1.0229007633587786,1.4045801526717556,-1.1908396946564885
2.314786376953125,-1.6890875244140626,-1.4726376342773437,1.9465648854961832,1.7404580152671756,-2.465648854961832
1.2771441650390625,-1.678609313964844,-1.3777349853515626,0.6030534351145038,2.8091603053435112,-3.3053435114503817
-0.987945556640625,-0.25926086425781253,1.0822494506835938,0.5038167938931297,2.9389312977099236,-2.5114503816793894
-1.7229171752929688,1.3022918701171875,1.4798226928710938,0.9694656488549618,1.4122137404580153,-0.83206106870229
-0.8415499877929687,1.4516812133789063,1.5226336669921876,1.5725190839694656,0.09923664122137404,-0.5114503816793893
0.6834786987304687,1.025068359375,-1.5831079101562502,2.8396946564885495,0.9847328244274809,0.5038167938931297
2.0842657470703125,-0.6041436767578126,0.4263134765625,1.450381679389313,-0.21374045801526717,0.3893129770992366
2.3872357177734376,-1.4941928100585937,0.5062472534179687,2.32824427480916,0.9847328244274809,-0.23664122137404578
-0.97716796875,2.877915344238281,1.5010784912109376,0.33587786259541985,-0.5419847328244275,1.7633587786259541
-3.816463623046875,1.1834390258789063,1.4783258056640625,-0.5801526717557252,0.32061068702290074,1.8702290076335877
-5.179229736328125,-0.44846740722656253,0.8505313110351563,-0.45038167938931295,-0.20610687022900762,2.4198473282442747
-5.006788330078125,-1.6001724243164064,0.29877868652343753,-0.9312977099236641,-0.13740458015267176,2.4427480916030535
-3.7748501586914065,-0.7981402587890626,1.1714639282226562,-0.9236641221374046,-0.9847328244274809,2.480916030534351
-1.7058526611328126,-0.67300048828125,1.6238232421875,0.3969465648854962,-0.38167938931297707,2.763358778625954
1.2780422973632812,-1.6600479125976564,0.607137451171875,-0.9236641221374046,-0.16793893129770993,0.8091603053435115
2.5503964233398437,-2.22018310546875,0.111368408203125,-0.8854961832061068,0.5343511450381679,-0.25190839694656486
-0.18920654296875,1.1337423706054688,-1.7106427001953126,0.916030534351145,1.5725190839694656,-2.6717557251908395
-0.8631051635742188,-0.8786727905273438,-0.5801934814453126,0.022900763358778626,2.786259541984733,-2.687022900763359
-1.6408877563476563,1.4160552978515626,1.6807049560546876,-1.0763358778625953,2.015267175572519,-1.5572519083969465
-0.07095245361328126,0.00239501953125,3.516786804199219,0.26717557251908397,1.1450381679389312,-0.3969465648854962
1.5396981811523438,1.4468911743164063,1.7771044921875,0.8473282442748091,0.4961832061068702,0.7862595419847328
2.26808349609375,-0.06316864013671876,1.3552816772460938,-1.1603053435114503,0.17557251908396945,-0.05343511450381679
2.1968316650390625,0.01107696533203125,1.310973815917969,-0.6641221374045801,-0.061068702290076333,-0.2748091603053435
2.125280456542969,0.2667453002929688,0.30267059326171875,-0.13740458015267176,-0.16793893129770993,0.022900763358778626
2.4480093383789066,0.46523254394531255,0.8056246948242188,-0.5267175572519084,0.03816793893129771,0.07633587786259542
2.1788690185546877,0.36134857177734375,0.9888436889648438,-0.1984732824427481,-0.05343511450381679,-0.04580152671755725
1.9956500244140627,0.689765625,0.906514892578125,0.29770992366412213,0.061068702290076333,0.061068702290076333
1.9941531372070314,0.6113287353515625,0.6882687377929688,0.15267175572519084,-0.022900763358778626,0.007633587786259542
1.9474502563476563,0.731678466796875,0.2149530029296875,0.25190839694656486,0.07633587786259542,0.030534351145038167
1.4444961547851562,2.2147943115234376,-0.41852966308593753,-0.8931297709923663,-0.5343511450381679,0.6106870229007634
2.0713925170898437,1.3834231567382813,-0.7179071044921875,-0.15267175572519084,0.4351145038167939,0.6335877862595419
0.37272491455078127,3.098855895996094,2.0983364868164065,0.10687022900763359,0.916030534351145,0.648854961832061
-0.9469308471679688,2.6066793823242187,1.5343093872070312,0.22900763358778625,-0.4580152671755725,1.6259541984732824
-1.9917581176757813,1.0807525634765625,-0.076640625,0.20610687022900762,-0.32061068702290074,2.267175572519084
-2.4459136962890624,-0.7110214233398438,-0.6637197875976563,-0.6717557251908397,0.5343511450381679,2.3587786259541983
-1.6313076782226563,-1.1684701538085938,-0.14699432373046875,-0.6259541984732824,-0.20610687022900762,2.351145038167939
-1.2618759155273438,-0.8235873413085938,-0.013471984863281251,-0.5267175572519084,-0.022900763358778626,2.404580152671756
-0.17214202880859375,-1.7378860473632813,-0.7714956665039063,-1.099236641221374,-0.0916030534351145,1.083969465648855
2.7872039794921877,-1.3813275146484376,-1.7690213012695313,1.297709923664122,2.8625954198473282,-1.3358778625954197
1.3567785644531252,0.4137396240234375,-2.701282653808594,2.297709923664122,2.732824427480916,-2.5725190839694654
0.16435821533203127,-0.35625915527343754,1.37953125,0.4351145038167939,2.9236641221374047,-2.8702290076335877
-0.9151968383789063,0.9621990966796875,3.516487426757813,1.0229007633587786,1.198473282442748,-1.5725190839694656
-0.7876620483398438,1.3313314819335937,1.3582754516601563,1.3053435114503815,1.0687022900763359,-1.465648854961832
-1.0017169189453126,1.2349319458007812,-0.36434234619140626,2.045801526717557,1.129770992366412,-0.9007633587786259
0.30566436767578126,1.178349609375,-0.3116519165039063,1.9770992366412212,1.3206106870229006,0.007633587786259542
2.0004400634765624,-0.2508782958984375,0.9136999511718751,1.66412213740458,0.6335877862595419,0.366412213740458
0.6277944946289062,1.53999755859375,2.578837280273438,1.7862595419847327,0.06870229007633588,0.5267175572519084
-3.963457946777344,0.9499246215820313,0.8843609619140625,-0.3282442748091603,0.8702290076335878,2.236641221374046
-5.793851623535157,-1.1813433837890626,0.5936654663085937,-0.9465648854961831,0.4809160305343511,2.801526717557252
-0.6807843017578126,-0.335302734375,1.6304095458984376,0.0,-0.2595419847328244,2.4427480916030535
1.9163150024414064,-1.2624746704101564,0.925675048828125,-0.15267175572519084,0.23664122137404578,0.732824427480916
2.395318908691406,-1.6594491577148438,0.8044271850585938,-0.09923664122137404,1.4885496183206106,-0.1984732824427481
0.18711090087890625,-0.0143701171875,-0.9199868774414063,2.519083969465649,0.7175572519083969,-2.679389312977099
0.9768685913085938,0.2721340942382813,-0.7035369873046875,0.20610687022900762,2.480916030534351,-2.0229007633587783
0.09490264892578125,1.8357824707031252,1.8097366333007814,0.6564885496183206,2.16030534351145,-1.1221374045801527
0.5655239868164063,1.7031582641601564,2.6842181396484377,0.15267175572519084,1.4427480916030533,-0.8396946564885496
1.2205618286132813,0.111368408203125,2.4866290283203125,-0.282442748091603,1.2061068702290076,-0.6717557251908397
1.4196478271484376,0.40775207519531254,2.379152526855469,0.5190839694656488,1.1526717557251909,-1.0687022900763359
1.5325131225585937,0.805924072265625,1.7738113403320312,1.3740458015267174,0.6870229007633587,-0.07633587786259542
1.8642233276367188,-0.041912841796875,1.680106201171875,0.26717557251908397,-0.26717557251908397,0.030534351145038167
2.113604736328125,-0.02155517578125,0.5550457763671875,-0.40458015267175573,-0.007633587786259542,-0.030534351145038167
1.7812957763671875,-0.5706134033203125,0.7430548095703126,0.23664122137404578,-0.09923664122137404,0.06870229007633588
1.888472900390625,-0.16046630859375,0.6334826660156251,-0.06870229007633588,-0.04580152671755725,-0.06870229007633588
1.886077880859375,-0.10388397216796875,0.46343627929687503,0.13740458015267176,0.06870229007633588,-0.007633587786259542
1.7827926635742188,-0.29069549560546876,0.5110372924804688,0.007633587786259542,-0.022900763358778626,0.015267175572519083
1.7274078369140626,-0.1454974365234375,0.26225463867187504,0.09923664122137404,0.007633587786259542,-0.007633587786259542
1.62861328125,-0.1802252197265625,0.2820135498046875,0.03816793893129771,0.0,-0.015267175572519083
1.56873779296875,-0.11406280517578125,0.22632934570312502,-0.022900763358778626,-0.015267175572519083,0.007633587786259542
1.4810202026367187,-0.17214202880859375,0.15208374023437501,-0.061068702290076333,-0.022900763358778626,0.007633587786259542
1.4079721069335938,-0.21555175781250002,0.13022918701171876,0.0,-0.015267175572519083,-0.022900763358778626
1.3373190307617189,-0.1197509765625,0.08472381591796875,0.04580152671755725,-0.007633587786259542,-0.007633587786259542
1.2720547485351563,-0.12214599609375,0.02155517578125,0.0,-0.015267175572519083,0.0
1.1945159912109375,-0.17004638671875,0.006586303710937501,0.03816793893129771,-0.007633587786259542,0.0
1.0963201904296875,-0.15627502441406252,0.0047900390625,0.061068702290076333,-0.03816793893129771,0.0
1.0319540405273437,-0.13442047119140627,-0.07424560546875,0.007633587786259542,0.022900763358778626,-0.007633587786259542
0.9487271118164063,-0.09610015869140626,-0.14938934326171877,-0.13740458015267176,0.007633587786259542,-0.030534351145038167
0.7167095947265625,0.5993536376953126,-0.09071136474609376,-0.549618320610687,-0.19083969465648853,0.022900763358778626
0.32901580810546877,2.2195843505859374,-0.18651214599609375,-1.3206106870229006,-0.282442748091603,0.3053435114503817
0.1023870849609375,2.997067565917969,-0.5382806396484375,-1.8015267175572518,-0.022900763358778626,0.8702290076335878
1.838177490234375,2.5533901977539064,-0.6035449218750001,-1.282442748091603,0.5190839694656488,0.9465648854961831
3.2359707641601565,0.5595364379882812,0.17064514160156252,1.6106870229007633,1.8549618320610686,0.1450381679389313
-0.566422119140625,5.034331054687501,0.22632934570312502,-1.2900763358778626,-0.7633587786259541,0.8625954198473282
-1.191222839355469,4.256548461914063,0.2616558837890625,-1.1450381679389312,-1.0076335877862594,1.9236641221374045
-2.3770568847656253,1.8163229370117189,-1.5944842529296877,0.10687022900763359,0.11450381679389313,2.9083969465648853
-3.5616934204101565,-0.7170089721679688,-1.0301577758789062,-0.9923664122137404,0.21374045801526717,2.633587786259542
-2.489622802734375,-2.222578125,-0.425115966796875,-0.9923664122137404,-0.3893129770992366,2.5038167938931295
-0.45984375,-2.6926007080078125,-0.7556286621093751,0.09923664122137404,-0.16030534351145037,1.4351145038167938
0.24399261474609377,-1.5573614501953126,-1.7178277587890627,-1.549618320610687,0.6564885496183206,0.8625954198473282
1.948049011230469,-1.1103909301757813,-1.3717474365234377,0.48854961832061067,1.1908396946564885,-0.5038167938931297
2.706072692871094,-1.7953665161132812,-2.357896728515625,2.0610687022900764,2.564885496183206,-2.312977099236641
2.706072692871094,-1.7953665161132812,-2.357896728515625,2.0610687022900764,2.564885496183206,-2.312977099236641
1.380728759765625,1.0732681274414062,2.5306375122070315,0.5954198473282443,2.0610687022900764,-1.7175572519083968
-0.024548950195312502,0.604742431640625,1.9522402954101563,1.7175572519083968,0.7786259541984732,-1.2519083969465647
-0.024548950195312502,0.604742431640625,1.9522402954101563,1.7175572519083968,0.7786259541984732,-1.2519083969465647
-0.024548950195312502,0.604742431640625,1.9522402954101563,1.7175572519083968,0.7786259541984732,-1.2519083969465647
2.0731887817382812,-0.1484912109375,2.0477416992187503,0.6641221374045801,-0.007633587786259542,-0.015267175572519083
2.0731887817382812,-0.1484912109375,2.0477416992187503,0.6641221374045801,-0.007633587786259542,-0.015267175572519083
2.0731887817382812,-0.1484912109375,2.0477416992187503,0.6641221374045801,-0.007633587786259542,-0.015267175572519083
-6.584208068847657,-1.1837384033203127,1.1822415161132813,-0.5954198473282443,0.1450381679389313,3.0534351145038165
-5.98036376953125,-0.6942562866210937,0.7439529418945313,-0.9541984732824427,-0.29770992366412213,2.9618320610687023
-5.98036376953125,-0.6942562866210937,0.7439529418945313,-0.9541984732824427,-0.29770992366412213,2.9618320610687023
-5.98036376953125,-0.6942562866210937,0.7439529418945313,-0.9541984732824427,-0.29770992366412213,2.9618320610687023
-5.98036376953125,-0.6942562866210937,0.7439529418945313,-0.9541984732824427,-0.29770992366412213,2.9618320610687023
-5.98036376953125,-0.6942562866210937,0.7439529418945313,-0.9541984732824427,-0.29770992366412213,2.9618320610687023
-5.98036376953125,-0.6942562866210937,0.7439529418945313,-0.9541984732824427,-0.29770992366412213,2.9618320610687023
-5.98036376953125,-0.6942562866210937,0.7439529418945313,-0.9541984732824427,-0.29770992366412213,2.9618320610687023
-5.98036376953125,-0.6942562866210937,0.7439529418945313,-0.9541984732824427,-0.29770992366412213,2.9618320610687023
-5.98036376953125,-0.6942562866210937,0.7439529418945313,-0.9541984732824427,-0.29770992366412213,2.9618320610687023
1.5983761596679689,0.944835205078125,2.5366250610351564,-0.38167938931297707,-0.23664122137404578,0.12213740458015267
1.5983761596679689,0.944835205078125,2.5366250610351564,-0.38167938931297707,-0.23664122137404578,0.12213740458015267
1.5983761596679689,0.944835205078125,2.5366250610351564,-0.38167938931297707,-0.23664122137404578,0.12213740458015267
2.0863613891601562,0.42272094726562504,0.4149371337890625,0.05343511450381679,-0.0916030534351145,0.030534351145038167
1.9288888549804688,0.28889923095703124,0.7167095947265625,0.1984732824427481,-0.03816793893129771,0.06870229007633588
1.9091299438476563,0.39577697753906255,0.4209246826171875,-0.2748091603053435,-0.12213740458015267,0.0
1.84656005859375,0.1484912109375,0.3550616455078125,0.06870229007633588,0.05343511450381679,-0.022900763358778626
1.713337097167969,0.4005670166015625,0.358055419921875,0.11450381679389313,-0.03816793893129771,0.015267175572519083
1.6696279907226563,0.27812164306640624,0.26794281005859377,0.030534351145038167,0.0,0.015267175572519083
1.6040643310546876,0.277822265625,0.17393829345703127,-0.007633587786259542,-0.022900763358778626,0.0
1.6040643310546876,0.277822265625,0.17393829345703127,-0.007633587786259542,-0.022900763358778626,0.0
1.4100677490234377,0.26075775146484376,0.0389190673828125,-0.03816793893129771,0.015267175572519083,-0.022900763358778626
1.3720468139648438,0.49756530761718754,-0.08831634521484376,-0.20610687022900762,-0.015267175572519083,-0.08396946564885496
1.3720468139648438,0.49756530761718754,-0.08831634521484376,-0.20610687022900762,-0.015267175572519083,-0.08396946564885496
0.583187255859375,2.6731411743164064,-1.2711566162109376,-1.6030534351145038,0.015267175572519083,0.6641221374045801
1.3286370849609375,2.6758355712890625,-0.5975573730468751,-1.3206106870229006,0.007633587786259542,0.8931297709923663
1.1765533447265626,2.6201513671875003,2.057022399902344,1.015267175572519,1.099236641221374,1.0610687022900762
-0.7298822021484376,3.229683837890625,0.8385562133789063,-0.09923664122137404,-0.732824427480916,1.6564885496183206
-1.0041119384765627,1.9519409179687501,-0.6200106811523438,0.030534351145038167,0.33587786259541985,2.0763358778625953
-2.125280456542969,-0.9918374633789063,-0.2859054565429688,-1.1526717557251909,0.4961832061068702,2.5801526717557253
-2.2854473876953127,-2.279459838867188,-0.31913635253906253,-1.2595419847328244,-0.3282442748091603,2.5038167938931295
-0.6460565185546875,-3.5329531860351566,-0.18531463623046876,1.6564885496183206,0.24427480916030533,1.580152671755725
2.1339624023437502,-5.05588623046875,1.3980926513671876,1.984732824427481,1.2061068702290076,-0.4809160305343511
1.5094610595703126,-4.041296081542969,1.4750326538085938,1.916030534351145,-0.7099236641221374,-0.9770992366412213
1.4654525756835939,-3.171005859375,-0.047601013183593756,1.5572519083969465,-1.7099236641221374,-2.282442748091603
-1.06578369140625,2.183060302734375,0.9906399536132813,-0.4809160305343511,0.8778625954198473,-3.7709923664122136
-0.4709207153320313,0.5475613403320313,2.937192077636719,2.068702290076336,-0.061068702290076333,-0.7404580152671756
0.40266265869140627,1.2472064208984375,0.79754150390625,1.213740458015267,-0.9236641221374046,-0.9541984732824427
0.737666015625,0.55324951171875,-0.5574407958984375,1.9312977099236641,-0.1450381679389313,-0.7022900763358778
1.16637451171875,-0.9029223632812501,-0.9981243896484375,3.114503816793893,0.21374045801526717,-0.6946564885496183
1.8139279174804688,-0.47990203857421876,0.46912445068359376,0.9618320610687022,0.1450381679389313,-0.5190839694656488
1.601968688964844,-0.48109954833984375,1.3837225341796875,2.732824427480916,0.32061068702290074,-0.7938931297709924
-0.619112548828125,2.9264144897460938,1.7759069824218752,0.8549618320610687,0.7404580152671756,1.3435114503816794
-3.502416687011719,0.3607498168945313,2.8554620361328125,-0.05343511450381679,0.2748091603053435,2.1374045801526718
-4.973856811523437,-1.3163626098632812,1.2564871215820312,-0.6030534351145038,0.3129770992366412,2.709923664122137
-4.376598815917969,-2.1665945434570313,0.4751119995117188,-1.0916030534351144,-0.08396946564885496,2.32824427480916
-1.2241543579101564,-0.6044430541992187,1.7256115722656251,0.1450381679389313,-0.6412213740458015,2.3893129770992365
0.6466552734375001,-1.3501922607421877,1.7588424682617188,-0.7938931297709924,-0.6030534351145038,1.618320610687023
2.877316589355469,-1.4971865844726564,0.21674926757812502,-0.16030534351145037,0.13740458015267176,0.08396946564885496
2.2683828735351566,-1.9869680786132813,0.39577697753906255,1.015267175572519,1.5419847328244274,-1.9083969465648853
1.055006103515625,0.31284942626953127,-0.7679031372070313,1.7786259541984732,1.3358778625954197,-1.9923664122137403
